Row data started in the following order:
time, gx, gy, gz, ax, ay, az, mx, my, mz, temp, pres;
3946670890l,   -0.01171,   -0.01064,   -0.01064,   -0.03223,   +0.06299,   +1.02441,  -30.77930, +3463.21436,  +38.41406,   +0.00000,   +0.00000;
3946674007l,   -0.01703,   -0.00851,   -0.00639,   -0.02588,   +0.06299,   +1.02930,  -17.01914,  -30.41719,  +35.27110,   +0.00000,   +0.00000;
3946677052l,   -0.01064,   -0.00532,   -0.00851,   -0.02490,   +0.05322,   +1.01709,  -17.01914,  -30.41719,  +35.27110,   +0.00000,   +0.00000;
3946680095l,   -0.01171,   -0.00532,   -0.01277,   -0.02295,   +0.05664,   +1.00977,  -17.01914,  -30.41719,  +35.27110,   +0.00000,   +0.00000;
3946683138l,   -0.00745,   -0.00745,   -0.01171,   -0.02588,   +0.05273,   +1.01465,  -17.01914,  -30.41719,  +35.27110,   +0.00000,   +0.00000;
3946686180l,   -0.00851,   -0.01064,   -0.01171,   -0.01904,   +0.06250,   +1.00928,  -17.01914,  -30.41719,  +35.27110,   +0.00000,   +0.00000;
3946689224l,   -0.01490,   -0.00639,   -0.00532,   -0.01904,   +0.05273,   +1.03369,  -17.01914,  -30.41719,  +35.27110,   +0.00000,   +0.00000;
3946692267l,   -0.01277,   -0.00851,   -0.00745,   -0.02100,   +0.05127,   +1.01514,  -17.01914,  -30.41719,  +35.27110,   +0.00000,   +0.00000;
3946695310l,   -0.01064,   -0.00958,   -0.00958,   -0.02295,   +0.04346,   +1.03125,  -17.01914,  -30.41719,  +35.27110,   +0.00000,   +0.00000;
3946698353l,   -0.00851,   -0.00745,   -0.00745,   -0.01660,   +0.05127,   +1.02393,  -17.01914,  -30.41719,  +35.27110,   +0.00000,   +0.00000;
3946701394l,   -0.01383,   -0.00426,   -0.01171,   -0.02441,   +0.04834,   +1.02979,  -17.01914,  -30.41719,  +35.27110,   +0.00000,   +0.00000;
3946704436l,   -0.01064,   -0.01171,   -0.01064,   -0.03027,   +0.05908,   +1.01270,  -17.01914,  -30.41719,  +35.27110,   +0.00000,   +0.00000;
3946707477l,   -0.01064,   -0.00958,   -0.00851,   -0.02393,   +0.05176,   +1.03076,  -17.01914,  -30.41719,  +35.27110,   +0.00000,   +0.00000;
3946710519l,   -0.01383,   -0.01064,   -0.01064,   -0.01562,   +0.05664,   +1.02100,  -17.01914,  -30.41719,  +35.27110,   +0.00000,   +0.00000;
3946713561l,   -0.01171,   -0.00745,   -0.00745,   -0.01855,   +0.05664,   +1.00781,  -17.01914,  -30.41719,  +35.27110,   +0.00000,   +0.00000;
3946716621l,   -0.01383,   -0.00958,   -0.00532,   -0.02441,   +0.05713,   +1.02539,  -17.01914,  -30.41719,  +35.27110,   +0.00000,   +0.00000;
3946719662l,   -0.01596,   -0.01277,   -0.01064,   -0.02539,   +0.05371,   +1.01855,  -17.01914,  -30.41719,  +35.27110,   +0.00000,   +0.00000;
3946722722l,   -0.01596,   -0.00958,   -0.00851,   -0.02246,   +0.05273,   +1.01465,  -17.01914,  -30.41719,  +35.27110,   +0.00000,   +0.00000;
3946725764l,   -0.01171,   -0.00851,   -0.00958,   -0.02490,   +0.05957,   +1.02295,  -17.01914,  -30.41719,  +35.27110,   +0.00000,   +0.00000;
3946728824l,   -0.01277,   -0.00851,   -0.00851,   -0.02148,   +0.06543,   +1.01709,  -17.01914,  -30.41719,  +35.27110,   +0.00000,   +0.00000;
3946731866l,   -0.01490,   -0.00639,   -0.01064,   -0.02295,   +0.05225,   +1.01758,  -17.01914,  -30.41719,  +35.27110,   +0.00000,   +0.00000;
3946734908l,   -0.01383,   -0.00851,   -0.01064,   -0.02344,   +0.05664,   +1.02197,  -17.01914,  -30.41719,  +35.27110,   +0.00000,   +0.00000;
3946737966l,   -0.00958,   -0.01171,   -0.01064,   -0.02197,   +0.05420,   +1.01855,  -17.01914,  -30.41719,  +35.27110,   +0.00000,   +0.00000;
3946741007l,   -0.01171,   -0.00532,   -0.01596,   -0.02588,   +0.05664,   +1.01855,  -17.01914,  -30.41719,  +35.27110,   +0.00000,   +0.00000;
3946744051l,   -0.00851,   -0.00639,   -0.00745,   -0.02686,   +0.04980,   +1.01855,  -17.01914,  -30.41719,  +35.27110,   +0.00000,   +0.00000;
3946747093l,   -0.00958,   -0.00639,   -0.01064,   -0.02832,   +0.05518,   +1.02246,  -17.01914,  -30.41719,  +35.27110,   +0.00000,   +0.00000;
3946750135l,   -0.00532,   -0.01064,   -0.00745,   -0.02539,   +0.05664,   +1.01904,  -17.01914,  -30.41719,  +35.27110,   +0.00000,   +0.00000;
3946753179l,   -0.01490,   -0.00532,   -0.00851,   -0.02344,   +0.06055,   +1.02100,  -17.01914,  -30.41719,  +35.27110,   +0.00000,   +0.00000;
3946756311l,   -0.00745,   -0.00745,   -0.00639,   -0.03174,   +0.06055,   +1.01611,  -17.01914,  -30.41719,  +35.27110,   +0.00000,   +0.00000;
3946759354l,   -0.01596,   -0.01277,   -0.00851,   -0.02588,   +0.05762,   +1.01709,  -17.01914,  -30.41719,  +35.27110,   +0.00000,   +0.00000;
3946762397l,   -0.00851,   -0.00532,   -0.01171,   -0.02881,   +0.05615,   +1.02539,  -17.01914,  -30.41719,  +35.27110,   +0.00000,   +0.00000;
3946765438l,   -0.01277,   -0.00745,   -0.01064,   -0.02002,   +0.05078,   +1.00977,  -17.01914,  -30.41719,  +35.27110,   +0.00000,   +0.00000;
3946768480l,   -0.00851,   -0.00851,   -0.00639,   -0.02393,   +0.05762,   +1.02637,  -17.01914,  -30.41719,  +35.27110,   +0.00000,   +0.00000;
3946771521l,   -0.01064,   -0.00639,   -0.01703,   -0.02002,   +0.05615,   +1.01904,  -17.01914,  -30.41719,  +35.27110,   +0.00000,   +0.00000;
3946774563l,   -0.01277,   -0.01064,   -0.00213,   -0.03027,   +0.05762,   +1.02002,  -17.01914,  -30.41719,  +35.27110,   +0.00000,   +0.00000;
3946777606l,   -0.01171,   -0.01064,   -0.00639,   -0.02197,   +0.05322,   +1.01758,  -17.01914,  -30.41719,  +35.27110,   +0.00000,   +0.00000;
3946780649l,   -0.01596,   -0.00851,   -0.00745,   -0.02588,   +0.05176,   +1.01758,  -17.01914,  -30.41719,  +35.27110,   +0.00000,   +0.00000;
3946783692l,   -0.01383,   -0.00532,   -0.00958,   -0.02344,   +0.05859,   +1.03467,  -18.28652,  -30.23613,  +36.84258,   +0.00000,   +0.00000;
3946786734l,   -0.01383,   -0.01171,   -0.00639,   -0.02051,   +0.05420,   +1.01953,  -18.28652,  -30.23613,  +36.84258,   +0.00000,   +0.00000;
3946789777l,   -0.01383,   -0.00745,   -0.00745,   -0.03613,   +0.05615,   +1.02393,  -18.28652,  -30.23613,  +36.84258,   +0.00000,   +0.00000;
3946792819l,   -0.00851,   -0.01277,   -0.01064,   -0.03564,   +0.05127,   +1.01416,  -18.28652,  -30.23613,  +36.84258,   +0.00000,   +0.00000;
3946795861l,   -0.01277,   -0.00745,   -0.00851,   -0.02441,   +0.04688,   +1.02295,  -18.28652,  -30.23613,  +36.84258,   +0.00000,   +0.00000;
3946798903l,   -0.01383,   -0.00639,   -0.00958,   -0.02832,   +0.05176,   +1.02979,  -18.28652,  -30.23613,  +36.84258,   +0.00000,   +0.00000;
3946801965l,   -0.01064,   -0.01171,   -0.00958,   -0.02783,   +0.06152,   +1.02051,  -18.28652,  -30.23613,  +36.84258,   +0.00000,   +0.00000;
3946805008l,   -0.01703,   -0.00745,   -0.00958,   -0.02393,   +0.04492,   +1.02783,  -18.28652,  -30.23613,  +36.84258,   +0.00000,   +0.00000;
3946808050l,   -0.01064,   -0.00851,   -0.00426,   -0.02393,   +0.05420,   +1.01611,  -18.28652,  -30.23613,  +36.84258,   +0.00000,   +0.00000;
3946811093l,   -0.00958,   -0.00639,   -0.01064,   -0.01855,   +0.06494,   +0.99756,  -18.28652,  -30.23613,  +36.84258,   +0.00000,   +0.00000;
3946814136l,   -0.01064,   -0.00958,   -0.00639,   -0.01611,   +0.05908,   +1.02295,  -18.28652,  -30.23613,  +36.84258,   +0.00000,   +0.00000;
3946817178l,   -0.01383,   -0.00851,   -0.00851,   -0.02295,   +0.05420,   +1.02441,  -18.28652,  -30.23613,  +36.84258,   +0.00000,   +0.00000;
3946820220l,   -0.01277,   -0.01064,   -0.00639,   -0.02588,   +0.06152,   +1.02490,  -18.28652,  -30.23613,  +36.84258,   +0.00000,   +0.00000;
3946823263l,   -0.01064,   -0.00958,   -0.00745,   -0.01807,   +0.06787,   +1.01465,  -18.28652,  -30.23613,  +36.84258,   +0.00000,   +0.00000;
3946826304l,   -0.01596,   -0.01171,   -0.01064,   -0.02295,   +0.05420,   +1.03271,  -18.28652,  -30.23613,  +36.84258,   +0.00000,   +0.00000;
3946829346l,   -0.01383,   -0.00745,   -0.00639,   -0.02783,   +0.05225,   +1.02930,  -18.28652,  -30.23613,  +36.84258,   +0.00000,   +0.00000;
3946832389l,   -0.01064,   -0.00851,   -0.01064,   -0.03174,   +0.04639,   +1.00977,  -18.28652,  -30.23613,  +36.84258,   +0.00000,   +0.00000;
3946835432l,   -0.01383,   -0.00958,   -0.00851,   -0.01709,   +0.04492,   +1.01953,  -18.28652,  -30.23613,  +36.84258,   +0.00000,   +0.00000;
3946838474l,   -0.01277,   -0.00958,   -0.00319,   -0.02832,   +0.05518,   +1.02246,  -18.28652,  -30.23613,  +36.84258,   +0.00000,   +0.00000;
3946841555l,   -0.01277,   -0.00532,   -0.00745,   -0.02881,   +0.04785,   +1.00049,  -18.28652,  -30.23613,  +36.84258,   +0.00000,   +0.00000;
3946844600l,   -0.01277,   -0.01596,   -0.00851,   -0.02100,   +0.05859,   +1.02393,  -18.28652,  -30.23613,  +36.84258,   +0.00000,   +0.00000;
3946847644l,   -0.00958,   -0.00426,   -0.01171,   -0.02734,   +0.04980,   +1.02002,  -18.28652,  -30.23613,  +36.84258,   +0.00000,   +0.00000;
3946850687l,   -0.01490,   -0.00639,   -0.00639,   -0.02930,   +0.05420,   +1.01562,  -18.28652,  -30.23613,  +36.84258,   +0.00000,   +0.00000;
3946853731l,   -0.00958,   -0.01171,   -0.01064,   -0.01416,   +0.04932,   +1.01855,  -18.28652,  -30.23613,  +36.84258,   +0.00000,   +0.00000;
3946856773l,   -0.01383,   -0.01277,   -0.00851,   -0.02734,   +0.05420,   +1.00781,  -18.28652,  -30.23613,  +36.84258,   +0.00000,   +0.00000;
3946859816l,   -0.01064,   -0.01171,   -0.00958,   -0.01514,   +0.04932,   +1.02148,  -18.28652,  -30.23613,  +36.84258,   +0.00000,   +0.00000;
3946862857l,   -0.01383,   -0.00532,   -0.00426,   -0.02441,   +0.05420,   +1.03516,  -18.28652,  -30.23613,  +36.84258,   +0.00000,   +0.00000;
3946865899l,   -0.01064,   -0.01171,   -0.00958,   -0.02734,   +0.05273,   +1.02588,  -18.28652,  -30.23613,  +36.84258,   +0.00000,   +0.00000;
3946868942l,   -0.01064,   -0.00851,   -0.00851,   -0.02832,   +0.05615,   +1.02588,  -18.28652,  -30.23613,  +36.84258,   +0.00000,   +0.00000;
3946872003l,   -0.01277,   -0.00532,   -0.00958,   -0.01660,   +0.04785,   +1.02246,  -18.28652,  -30.23613,  +36.84258,   +0.00000,   +0.00000;
3946875046l,   -0.01277,   -0.01064,   -0.00639,   -0.02881,   +0.05664,   +1.02539,  -18.28652,  -30.23613,  +36.84258,   +0.00000,   +0.00000;
3946878088l,   -0.01064,   -0.00958,   -0.01277,   -0.01465,   +0.05273,   +1.01074,  -18.28652,  -30.23613,  +36.84258,   +0.00000,   +0.00000;
3946881130l,   -0.01277,   -0.01064,   -0.00958,   -0.02051,   +0.05371,   +1.01660,  -18.28652,  -30.23613,  +36.84258,   +0.00000,   +0.00000;
3946884174l,   -0.00958,   -0.00958,   -0.00532,   -0.02197,   +0.06055,   +1.00391,  -18.28652,  -30.23613,  +36.84258,   +0.00000,   +0.00000;
3946887215l,   -0.01596,   -0.00851,   -0.00958,   -0.02734,   +0.04736,   +1.02539,  -18.28652,  -30.23613,  +36.84258,   +0.00000,   +0.00000;
3946890258l,   -0.01171,   -0.00851,   -0.01383,   -0.02539,   +0.05225,   +1.02881,  -18.28652,  -30.23613,  +36.84258,   +0.00000,   +0.00000;
3946893300l,   -0.01171,   -0.00851,   -0.00639,   -0.02197,   +0.05566,   +1.01562,  -18.28652,  -30.23613,  +36.84258,   +0.00000,   +0.00000;
3946896343l,   -0.01383,   -0.00958,   -0.01171,   -0.02441,   +0.05811,   +1.02441,  -18.28652,  -30.23613,  +36.84258,   +0.00000,   +0.00000;
3946899384l,   -0.01383,   -0.00958,   -0.00958,   -0.03076,   +0.05518,   +1.02051,  -18.28652,  -30.23613,  +36.84258,   +0.00000,   +0.00000;
3946902427l,   -0.01383,   -0.00851,   -0.00426,   -0.02686,   +0.06201,   +1.02295,  -18.28652,  -30.23613,  +36.84258,   +0.00000,   +0.00000;
3946905470l,   -0.01490,   -0.00532,   -0.01383,   -0.01221,   +0.05713,   +1.03809,  -18.28652,  -30.23613,  +36.84258,   +0.00000,   +0.00000;
3946908514l,   -0.01383,   -0.01064,   -0.01064,   -0.02734,   +0.05518,   +1.01758,  -17.38125,  -30.05508,  +37.01719,   +0.00000,   +0.00000;
3946911555l,   -0.00851,   -0.00639,   -0.00851,   -0.02490,   +0.05029,   +1.01172,  -17.38125,  -30.05508,  +37.01719,   +0.00000,   +0.00000;
3946914598l,   -0.01064,   -0.01064,   -0.00958,   -0.02686,   +0.05322,   +1.03955,  -17.38125,  -30.05508,  +37.01719,   +0.00000,   +0.00000;
3946917639l,   -0.00851,   -0.00745,   -0.00851,   -0.02979,   +0.05176,   +1.02881,  -17.38125,  -30.05508,  +37.01719,   +0.00000,   +0.00000;
3946920679l,   -0.01064,   -0.01064,   -0.00745,   -0.01904,   +0.05029,   +1.02539,  -17.38125,  -30.05508,  +37.01719,   +0.00000,   +0.00000;
3946923722l,   -0.00958,   -0.00639,   -0.00426,   -0.02686,   +0.05957,   +1.02441,  -17.38125,  -30.05508,  +37.01719,   +0.00000,   +0.00000;
3946926764l,   -0.01383,   -0.00745,   -0.00745,   -0.02344,   +0.05029,   +1.01709,  -17.38125,  -30.05508,  +37.01719,   +0.00000,   +0.00000;
3946929837l,   -0.01490,   -0.00958,   -0.01064,   -0.02246,   +0.05566,   +1.01074,  -17.38125,  -30.05508,  +37.01719,   +0.00000,   +0.00000;
3946932880l,   -0.01277,   -0.00426,   -0.00851,   -0.02539,   +0.05225,   +1.02734,  -17.38125,  -30.05508,  +37.01719,   +0.00000,   +0.00000;
3946935923l,   -0.01064,   -0.01171,   -0.00958,   -0.03223,   +0.05078,   +1.02051,  -17.38125,  -30.05508,  +37.01719,   +0.00000,   +0.00000;
3946938966l,   -0.01064,   -0.00958,   -0.00745,   -0.02441,   +0.04443,   +1.02197,  -17.38125,  -30.05508,  +37.01719,   +0.00000,   +0.00000;
3946942038l,   -0.01809,   -0.01064,   -0.00532,   -0.01318,   +0.04492,   +1.02979,  -17.38125,  -30.05508,  +37.01719,   +0.00000,   +0.00000;
3946945079l,   -0.01596,   -0.00851,   -0.00851,   -0.03027,   +0.05713,   +1.02539,  -17.38125,  -30.05508,  +37.01719,   +0.00000,   +0.00000;
3946948120l,   -0.01064,   -0.00532,   -0.00639,   -0.02734,   +0.05176,   +1.02539,  -17.38125,  -30.05508,  +37.01719,   +0.00000,   +0.00000;
3946951162l,   -0.01171,   -0.01171,   -0.00958,   -0.03418,   +0.05176,   +1.01123,  -17.38125,  -30.05508,  +37.01719,   +0.00000,   +0.00000;
3946954206l,   -0.01703,   -0.00213,   -0.00532,   -0.02490,   +0.05371,   +1.01367,  -17.38125,  -30.05508,  +37.01719,   +0.00000,   +0.00000;
3946957248l,   -0.01277,   -0.01171,   -0.01171,   -0.02979,   +0.05225,   +1.01172,  -17.38125,  -30.05508,  +37.01719,   +0.00000,   +0.00000;
3946960290l,   -0.01596,   -0.01064,   -0.01171,   -0.02783,   +0.05566,   +1.03223,  -17.38125,  -30.05508,  +37.01719,   +0.00000,   +0.00000;
3946963332l,   -0.00851,   -0.00851,   -0.01171,   -0.03125,   +0.05859,   +1.02588,  -17.38125,  -30.05508,  +37.01719,   +0.00000,   +0.00000;
3946966375l,   -0.01277,   -0.01064,   -0.00639,   -0.02783,   +0.05273,   +1.03125,  -17.38125,  -30.05508,  +37.01719,   +0.00000,   +0.00000;
3946969417l,   -0.01171,   -0.00532,   -0.01064,   -0.02295,   +0.05664,   +1.01709,  -17.38125,  -30.05508,  +37.01719,   +0.00000,   +0.00000;
3946972458l,   -0.01490,   -0.00851,   -0.00745,   -0.02930,   +0.05322,   +1.03467,  -17.38125,  -30.05508,  +37.01719,   +0.00000,   +0.00000;
3946975500l,   -0.01490,   -0.00426,   -0.00532,   -0.01807,   +0.05371,   +1.03271,  -17.38125,  -30.05508,  +37.01719,   +0.00000,   +0.00000;
3946978542l,   -0.01064,   -0.01064,   -0.01064,   -0.02197,   +0.05273,   +1.01758,  -17.38125,  -30.05508,  +37.01719,   +0.00000,   +0.00000;
3946981596l,   -0.01490,   -0.00426,   -0.00532,   -0.02148,   +0.05713,   +1.00830,  -17.38125,  -30.05508,  +37.01719,   +0.00000,   +0.00000;
3946984639l,   -0.01809,   -0.00745,   -0.01064,   -0.02881,   +0.05176,   +1.03223,  -17.38125,  -30.05508,  +37.01719,   +0.00000,   +0.00000;
3946987680l,   -0.00851,   -0.00851,   -0.00958,   -0.02002,   +0.05420,   +1.03027,  -17.38125,  -30.05508,  +37.01719,   +0.00000,   +0.00000;
3946990722l,   -0.01596,   -0.00958,   -0.00851,   -0.02881,   +0.05420,   +1.02979,  -17.38125,  -30.05508,  +37.01719,   +0.00000,   +0.00000;
3946993765l,   -0.00958,   -0.01490,   -0.01277,   -0.02295,   +0.05615,   +1.01562,  -17.38125,  -30.05508,  +37.01719,   +0.00000,   +0.00000;
3946996808l,   -0.00958,   -0.00745,   -0.00851,   -0.02295,   +0.04980,   +1.02783,  -17.38125,  -30.05508,  +37.01719,   +0.00000,   +0.00000;
3946999849l,   -0.01490,   -0.01064,   -0.00851,   -0.03320,   +0.05957,   +1.01025,  -17.38125,  -30.05508,  +37.01719,   +0.00000,   +0.00000;
3947002891l,   -0.01383,   -0.00851,   -0.00319,   -0.02783,   +0.04395,   +1.02100,  -17.38125,  -30.05508,  +37.01719,   +0.00000,   +0.00000;
3947005933l,   -0.01596,   -0.00851,   -0.00851,   -0.01709,   +0.05371,   +1.00928,  -17.38125,  -30.05508,  +37.01719,   +0.00000,   +0.00000;
3947008975l,   -0.01171,   -0.00745,   -0.01064,   -0.02979,   +0.05615,   +1.01416,  -17.38125,  -30.05508,  +37.01719,   +0.00000,   +0.00000;
3947012039l,   -0.01277,   -0.01171,   -0.00958,   -0.01514,   +0.05078,   +1.01953,  -17.38125,  -30.05508,  +37.01719,   +0.00000,   +0.00000;
3947015111l,   -0.01171,   -0.00745,   -0.00958,   -0.02295,   +0.05859,   +1.02100,  -17.38125,  -30.05508,  +37.01719,   +0.00000,   +0.00000;
3947018155l,   -0.01277,   -0.00745,   -0.01171,   -0.02783,   +0.06055,   +1.02295,  -17.38125,  -30.05508,  +37.01719,   +0.00000,   +0.00000;
3947021196l,   -0.01916,   -0.00958,   -0.00851,   -0.01514,   +0.05713,   +1.01416,  -17.38125,  -30.05508,  +37.01719,   +0.00000,   +0.00000;
3947024240l,   -0.01064,   -0.00958,   -0.00851,   -0.03320,   +0.05420,   +1.02588,  -17.38125,  -30.05508,  +37.01719,   +0.00000,   +0.00000;
3947027282l,   -0.01490,   -0.00958,   -0.00851,   -0.03125,   +0.05713,   +1.02002,  -17.38125,  -30.05508,  +37.01719,   +0.00000,   +0.00000;
3947030326l,   -0.01277,   -0.01383,   -0.01064,   -0.02930,   +0.04541,   +1.01904,  -17.38125,  -30.05508,  +37.01719,   +0.00000,   +0.00000;
3947033367l,   -0.00639,   -0.00745,   -0.01171,   -0.03320,   +0.05273,   +1.03271,  -17.38125,  -30.05508,  +37.01719,   +0.00000,   +0.00000;
3947036408l,   -0.01490,   -0.00426,   -0.00851,   -0.03076,   +0.04785,   +1.01904,  -17.38125,  -30.05508,  +37.01719,   +0.00000,   +0.00000;
3947039449l,   -0.01383,   -0.01064,   -0.00319,   -0.01367,   +0.04980,   +1.02686,  -17.38125,  -30.05508,  +37.01719,   +0.00000,   +0.00000;
3947042490l,   -0.01703,   -0.00532,   -0.00745,   -0.02051,   +0.05762,   +1.03125,  -17.38125,  -30.05508,  +37.01719,   +0.00000,   +0.00000;
3947045530l,   -0.00851,   -0.01064,   -0.01277,   -0.02490,   +0.05664,   +1.02393,  -17.38125,  -30.05508,  +37.01719,   +0.00000,   +0.00000;
3947048572l,   -0.01064,   -0.01064,   -0.00745,   -0.02148,   +0.05615,   +1.01270,  -17.38125,  -30.05508,  +37.01719,   +0.00000,   +0.00000;
3947051614l,   -0.01490,   -0.01064,   -0.00745,   -0.03223,   +0.05811,   +1.01611,  -17.38125,  -30.05508,  +37.01719,   +0.00000,   +0.00000;
3947054659l,   -0.01809,   -0.01064,   -0.00958,   -0.02588,   +0.06201,   +1.02197,  -17.38125,  -30.05508,  +37.01719,   +0.00000,   +0.00000;
3947057700l,   -0.01277,   -0.00639,   -0.00639,   -0.02539,   +0.05420,   +1.02441,  -17.38125,  -30.05508,  +37.01719,   +0.00000,   +0.00000;
3947060742l,   -0.01277,   -0.01171,   -0.00745,   -0.01416,   +0.05127,   +1.00830,  -17.38125,  -30.05508,  +37.01719,   +0.00000,   +0.00000;
3947063784l,   -0.01064,   -0.01171,   -0.00745,   -0.03174,   +0.05273,   +1.02148,  -17.38125,  -30.05508,  +37.01719,   +0.00000,   +0.00000;
3947066825l,   -0.01383,   -0.01171,   -0.00851,   -0.01807,   +0.04932,   +1.01074,  -17.38125,  -30.05508,  +37.01719,   +0.00000,   +0.00000;
3947069867l,   -0.01277,   -0.00745,   -0.00532,   -0.02734,   +0.05371,   +1.02148,  -17.38125,  -30.05508,  +37.01719,   +0.00000,   +0.00000;
3947072910l,   -0.01383,   -0.01064,   -0.01171,   -0.02930,   +0.06396,   +1.02734,  -17.38125,  -30.05508,  +37.01719,   +0.00000,   +0.00000;
3947075951l,   -0.01277,   -0.00745,   -0.00745,   -0.02881,   +0.05566,   +1.02100,  -17.38125,  -30.05508,  +37.01719,   +0.00000,   +0.00000;
3947078992l,   -0.01171,   -0.00745,   -0.00958,   -0.02734,   +0.05127,   +1.01562,  -17.38125,  -30.05508,  +37.01719,   +0.00000,   +0.00000;
3947082065l,   -0.01277,   -0.00851,   -0.00851,   -0.02881,   +0.04541,   +1.02002,  -17.38125,  -30.05508,  +37.01719,   +0.00000,   +0.00000;
3947085108l,   -0.01171,   -0.00745,   -0.00745,   -0.01611,   +0.05811,   +1.02051,  -17.38125,  -30.05508,  +37.01719,   +0.00000,   +0.00000;
3947088150l,   -0.00958,   -0.00532,   -0.01171,   -0.02930,   +0.04834,   +1.00977,  -17.38125,  -30.05508,  +37.01719,   +0.00000,   +0.00000;
3947091192l,   -0.01490,   -0.01064,   -0.01064,   -0.02393,   +0.06201,   +1.02783,  -17.38125,  -30.05508,  +37.01719,   +0.00000,   +0.00000;
3947094233l,   -0.01171,   -0.00851,   -0.01171,   -0.02344,   +0.05908,   +1.02490,  -17.38125,  -30.05508,  +37.01719,   +0.00000,   +0.00000;
3947097276l,   -0.00745,   -0.00532,   -0.01064,   -0.01904,   +0.04395,   +1.02979,  -17.38125,  -30.05508,  +37.01719,   +0.00000,   +0.00000;
3947100349l,   -0.01383,   -0.01383,   -0.00639,   -0.02930,   +0.05322,   +1.02734,  -17.38125,  -30.05508,  +37.01719,   +0.00000,   +0.00000;
3947103392l,   -0.00851,   -0.01490,   -0.01171,   -0.02100,   +0.05371,   +1.02246,  -17.38125,  -30.05508,  +37.01719,   +0.00000,   +0.00000;
3947106433l,   -0.01490,   -0.00639,   -0.00851,   -0.02783,   +0.05225,   +1.00732,  -17.38125,  -30.05508,  +37.01719,   +0.00000,   +0.00000;
3947109475l,   -0.00851,   -0.01383,   -0.00745,   -0.02441,   +0.05225,   +1.00732,  -17.38125,  -30.05508,  +37.01719,   +0.00000,   +0.00000;
3947112517l,   -0.01171,   -0.00745,   -0.00532,   -0.02783,   +0.05859,   +1.02002,  -17.38125,  -30.05508,  +37.01719,   +0.00000,   +0.00000;
3947115559l,   -0.00958,   -0.00745,   -0.01064,   -0.01660,   +0.05518,   +1.01611,  -17.38125,  -30.05508,  +37.01719,   +0.00000,   +0.00000;
3947118601l,   -0.01703,   -0.01171,   -0.00532,   -0.02930,   +0.05273,   +1.03076,  -17.38125,  -30.05508,  +37.01719,   +0.00000,   +0.00000;
3947121618l,   -0.01490,   -0.01277,   -0.00532,   -0.02246,   +0.06152,   +1.03711,  -17.38125,  -30.05508,  +37.01719,   +0.00000,   +0.00000;
3947124662l,   -0.01064,   -0.00639,   -0.01064,   -0.03271,   +0.04688,   +1.01416,  -17.38125,  -30.05508,  +37.01719,   +0.00000,   +0.00000;
3947127703l,   -0.01277,   -0.01064,   -0.00745,   -0.02197,   +0.05420,   +1.01855,  -17.38125,  -30.05508,  +37.01719,   +0.00000,   +0.00000;
3947130743l,   -0.01171,   -0.00958,   -0.00958,   -0.02441,   +0.05029,   +1.03857,  -17.38125,  -30.05508,  +37.01719,   +0.00000,   +0.00000;
3947133786l,   -0.01171,   -0.01277,   -0.00851,   -0.01562,   +0.04834,   +1.03271,  -17.38125,  -30.05508,  +37.01719,   +0.00000,   +0.00000;
3947136828l,   -0.00639,   -0.00958,   -0.00851,   -0.02588,   +0.05420,   +1.03076,  -17.38125,  -30.05508,  +37.01719,   +0.00000,   +0.00000;
3947139870l,   -0.01171,   -0.01171,   -0.01064,   -0.02246,   +0.05127,   +1.01807,  -17.38125,  -30.05508,  +37.01719,   +0.00000,   +0.00000;
3947142912l,   -0.01171,   -0.00851,   -0.00745,   -0.02344,   +0.05322,   +1.02295,  -17.38125,  -30.05508,  +37.01719,   +0.00000,   +0.00000;
3947145955l,   -0.01064,   -0.01064,   -0.01277,   -0.02832,   +0.05225,   +1.01416,  -17.38125,  -30.05508,  +37.01719,   +0.00000,   +0.00000;
3947148997l,   -0.01064,   -0.00958,   -0.00745,   -0.02734,   +0.05615,   +1.02588,  -17.38125,  -30.05508,  +37.01719,   +0.00000,   +0.00000;
3947152068l,   -0.01277,   -0.01171,   -0.01277,   -0.02295,   +0.05322,   +1.02051,  -17.38125,  -30.05508,  +37.01719,   +0.00000,   +0.00000;
3947155111l,   -0.01277,   -0.00851,   -0.00958,   -0.02295,   +0.05518,   +1.02051,  -17.38125,  -30.05508,  +37.01719,   +0.00000,   +0.00000;
3947158153l,   -0.01703,   -0.00639,   -0.01383,   -0.02979,   +0.05615,   +1.00879,  -17.38125,  -30.05508,  +37.01719,   +0.00000,   +0.00000;
3947161193l,   -0.01171,   -0.01064,   -0.01064,   -0.02588,   +0.06348,   +1.02979,  -17.38125,  -30.05508,  +37.01719,   +0.00000,   +0.00000;
3947164237l,   -0.00745,   -0.01064,   -0.01277,   -0.02246,   +0.04932,   +1.02393,  -17.38125,  -30.05508,  +37.01719,   +0.00000,   +0.00000;
3947167278l,   -0.01383,   -0.00745,   -0.00532,   -0.02197,   +0.06104,   +1.03320,  -17.38125,  -30.05508,  +37.01719,   +0.00000,   +0.00000;
3947170320l,   -0.01596,   -0.00745,   -0.00958,   -0.02490,   +0.05957,   +1.01855,  -17.38125,  -30.05508,  +37.01719,   +0.00000,   +0.00000;
3947173364l,   -0.01277,   -0.00745,   -0.01064,   -0.02490,   +0.05859,   +1.01611,  -17.38125,  -30.05508,  +37.01719,   +0.00000,   +0.00000;
3947176404l,   -0.01064,   -0.00958,   -0.00958,   -0.01611,   +0.05127,   +1.02734,  -17.38125,  -30.05508,  +37.01719,   +0.00000,   +0.00000;
3947179446l,   -0.01383,   -0.01064,   -0.01064,   -0.02783,   +0.05273,   +1.02100,  -17.38125,  -30.05508,  +37.01719,   +0.00000,   +0.00000;
3947182488l,   -0.01064,   -0.00745,   -0.00639,   -0.03418,   +0.05713,   +1.01465,  -17.38125,  -30.05508,  +37.01719,   +0.00000,   +0.00000;
3947185561l,   -0.01064,   -0.00851,   -0.01064,   -0.02295,   +0.05420,   +1.02100,  -17.38125,  -30.05508,  +37.01719,   +0.00000,   +0.00000;
3947188602l,   -0.01383,   -0.00851,   -0.00851,   -0.01855,   +0.05371,   +1.02393,  -17.38125,  -30.05508,  +37.01719,   +0.00000,   +0.00000;
3947191644l,   -0.01171,   -0.01064,   -0.00639,   -0.02002,   +0.04980,   +1.01514,  -17.38125,  -30.05508,  +37.01719,   +0.00000,   +0.00000;
3947194686l,   -0.01277,   -0.00106,   -0.01277,   -0.02344,   +0.05127,   +1.01270,  -17.38125,  -30.05508,  +37.01719,   +0.00000,   +0.00000;
3947197729l,   -0.01277,   -0.01383,   -0.01171,   -0.02881,   +0.06055,   +1.02734,  -17.38125,  -30.05508,  +37.01719,   +0.00000,   +0.00000;
3947200770l,   -0.01171,   -0.00958,   -0.01171,   -0.02246,   +0.05811,   +1.03125,  -17.38125,  -30.05508,  +37.01719,   +0.00000,   +0.00000;
3947203812l,   -0.01490,   -0.00745,   -0.00745,   -0.01709,   +0.04785,   +1.02246,  -17.38125,  -30.05508,  +37.01719,   +0.00000,   +0.00000;
3947206854l,   -0.01171,   -0.00958,   -0.00745,   -0.01904,   +0.04785,   +1.02441,  -17.38125,  -30.05508,  +37.01719,   +0.00000,   +0.00000;
3947209896l,   -0.01277,   -0.01490,   -0.01277,   -0.02490,   +0.05908,   +1.01270,  -17.38125,  -30.05508,  +37.01719,   +0.00000,   +0.00000;
3947212938l,   -0.00532,   -0.00639,   -0.00958,   -0.02539,   +0.05957,   +1.02441,  -17.38125,  -30.05508,  +37.01719,   +0.00000,   +0.00000;
3947215980l,   -0.01064,   -0.00639,   -0.00532,   -0.01709,   +0.05615,   +1.02979,  -17.38125,  -30.05508,  +37.01719,   +0.00000,   +0.00000;
3947219020l,   -0.01171,   -0.00851,   -0.00851,   -0.02783,   +0.05566,   +1.00781,  -17.38125,  -30.05508,  +37.01719,   +0.00000,   +0.00000;
3947222084l,   -0.00745,   -0.01064,   -0.00958,   -0.02051,   +0.04785,   +1.01709,  -17.38125,  -30.05508,  +37.01719,   +0.00000,   +0.00000;
3947225125l,   -0.01171,   -0.00958,   -0.00958,   -0.03125,   +0.05811,   +1.02197,  -17.38125,  -30.05508,  +37.01719,   +0.00000,   +0.00000;
3947228167l,   -0.01277,   -0.00958,   -0.00958,   -0.02783,   +0.05713,   +1.01807,  -17.38125,  -30.05508,  +37.01719,   +0.00000,   +0.00000;
3947231209l,   -0.01171,   -0.00851,   -0.00958,   -0.02441,   +0.04785,   +1.01807,  -17.38125,  -30.05508,  +37.01719,   +0.00000,   +0.00000;
3947234250l,   -0.01064,   -0.00745,   -0.01277,   -0.02100,   +0.05371,   +1.01855,  -17.38125,  -30.05508,  +37.01719,   +0.00000,   +0.00000;
3947237295l,   -0.01383,   -0.00745,   -0.01064,   -0.03076,   +0.05322,   +1.00879,  -17.38125,  -30.05508,  +37.01719,   +0.00000,   +0.00000;
3947240337l,   -0.00958,   -0.01277,   -0.00851,   -0.02930,   +0.05518,   +1.01465,  -17.38125,  -30.05508,  +37.01719,   +0.00000,   +0.00000;
3947243379l,   -0.01064,   -0.01064,   -0.00851,   -0.01855,   +0.04834,   +1.02148,  -17.38125,  -30.05508,  +37.01719,   +0.00000,   +0.00000;
3947246420l,   -0.01171,   -0.01064,   -0.01277,   -0.02002,   +0.06055,   +1.02490,  -17.38125,  -30.05508,  +37.01719,   +0.00000,   +0.00000;
3947249460l,   -0.01277,   -0.00745,   -0.00958,   -0.02148,   +0.05371,   +1.02783,  -17.38125,  -30.05508,  +37.01719,   +0.00000,   +0.00000;
3947252502l,   -0.01490,   -0.00745,   -0.00426,   -0.02930,   +0.04980,   +1.02832,  -17.38125,  -30.05508,  +37.01719,   +0.00000,   +0.00000;
3947255544l,   -0.01490,   -0.00639,   -0.01277,   -0.01465,   +0.05127,   +1.01514,  -17.38125,  -30.05508,  +37.01719,   +0.00000,   +0.00000;
3947258586l,   -0.01596,   -0.01171,   -0.00851,   -0.02246,   +0.05762,   +1.03564,  -17.38125,  -30.05508,  +37.01719,   +0.00000,   +0.00000;
3947261617l,   -0.00639,   -0.00639,   -0.01064,   -0.02393,   +0.05518,   +1.00928,  -17.38125,  -30.05508,  +37.01719,   +0.00000,   +0.00000;
3947264661l,   -0.01809,   -0.00851,   -0.01171,   -0.02393,   +0.04248,   +1.02002,  -17.38125,  -30.05508,  +37.01719,   +0.00000,   +0.00000;
3947267703l,   -0.01596,   -0.01064,   -0.00532,   -0.02686,   +0.06055,   +1.03076,  -17.38125,  -30.05508,  +37.01719,   +0.00000,   +0.00000;
3947270745l,   -0.01383,   -0.00851,   -0.00745,   -0.02686,   +0.05371,   +1.03320,  -17.38125,  -30.05508,  +37.01719,   +0.00000,   +0.00000;
3947273817l,   -0.01383,   -0.00532,   -0.00958,   -0.02686,   +0.05908,   +1.01758,  -17.38125,  -30.05508,  +37.01719,   +0.00000,   +0.00000;
3947276860l,   -0.01171,   -0.01277,   -0.00639,   -0.02295,   +0.05273,   +1.02881,  -17.38125,  -30.05508,  +37.01719,   +0.00000,   +0.00000;
3947279901l,   -0.00958,   -0.00532,   -0.00958,   -0.02588,   +0.06055,   +1.02051,  -17.38125,  -30.05508,  +37.01719,   +0.00000,   +0.00000;
3947282943l,   -0.01064,   -0.00745,   -0.00958,   -0.02246,   +0.05322,   +1.03271,  -17.56231,  -29.87403,  +36.84258,   +0.00000,   +0.00000;
3947285985l,   -0.01703,   -0.01064,   -0.01171,   -0.02490,   +0.06299,   +1.01807,  -17.56231,  -29.87403,  +36.84258,   +0.00000,   +0.00000;
3947289028l,   -0.01490,   -0.01064,   -0.00958,   -0.01904,   +0.04395,   +1.02100,  -17.56231,  -29.87403,  +36.84258,   +0.00000,   +0.00000;
3947292073l,   -0.01383,   -0.00958,   -0.00851,   -0.01855,   +0.05811,   +1.03271,  -17.56231,  -29.87403,  +36.84258,   +0.00000,   +0.00000;
3947295115l,   -0.01277,   -0.00639,   -0.01171,   -0.02686,   +0.05078,   +1.02832,  -17.56231,  -29.87403,  +36.84258,   +0.00000,   +0.00000;
3947298158l,   -0.01596,   -0.01171,   -0.01383,   -0.02295,   +0.04346,   +1.01953,  -17.56231,  -29.87403,  +36.84258,   +0.00000,   +0.00000;
3947301200l,   -0.01383,   -0.01277,   -0.00745,   -0.02344,   +0.05615,   +1.02100,  -17.56231,  -29.87403,  +36.84258,   +0.00000,   +0.00000;
3947304243l,   -0.01064,   -0.00958,   -0.00851,   -0.03076,   +0.05811,   +1.03076,  -17.56231,  -29.87403,  +36.84258,   +0.00000,   +0.00000;
3947307284l,   -0.01064,   -0.00639,   -0.00851,   -0.02051,   +0.06250,   +1.01611,  -17.56231,  -29.87403,  +36.84258,   +0.00000,   +0.00000;
3947310327l,   -0.00851,   -0.00532,   -0.01064,   -0.02881,   +0.05273,   +1.01855,  -17.56231,  -29.87403,  +36.84258,   +0.00000,   +0.00000;
3947313369l,   -0.01171,   -0.00426,   -0.01277,   -0.02783,   +0.06055,   +1.03955,  -17.56231,  -29.87403,  +36.84258,   +0.00000,   +0.00000;
3947316411l,   -0.01277,   -0.00851,   -0.01277,   -0.02539,   +0.05225,   +1.02734,  -17.56231,  -29.87403,  +36.84258,   +0.00000,   +0.00000;
3947319453l,   -0.00958,   -0.01064,   -0.00851,   -0.02344,   +0.05420,   +1.02002,  -17.56231,  -29.87403,  +36.84258,   +0.00000,   +0.00000;
3947322496l,   -0.01383,   -0.00851,   -0.00745,   -0.02441,   +0.05762,   +1.02588,  -17.56231,  -29.87403,  +36.84258,   +0.00000,   +0.00000;
3947325539l,   -0.01171,   -0.00213,   -0.00639,   -0.01660,   +0.06055,   +1.01807,  -17.56231,  -29.87403,  +36.84258,   +0.00000,   +0.00000;
3947328582l,   -0.01277,   -0.01383,   -0.00532,   -0.02881,   +0.06348,   +1.02539,  -17.56231,  -29.87403,  +36.84258,   +0.00000,   +0.00000;
3947331614l,   -0.01490,   -0.00745,   -0.01064,   -0.03467,   +0.05566,   +1.01904,  -17.56231,  -29.87403,  +36.84258,   +0.00000,   +0.00000;
3947334659l,   -0.01277,   -0.00745,   -0.00639,   -0.02393,   +0.05127,   +1.02246,  -17.56231,  -29.87403,  +36.84258,   +0.00000,   +0.00000;
3947337701l,   -0.01171,   -0.00958,   -0.01064,   -0.02490,   +0.05371,   +1.02148,  -17.56231,  -29.87403,  +36.84258,   +0.00000,   +0.00000;
3947340743l,   -0.01490,   -0.01064,   -0.00851,   -0.02686,   +0.05273,   +1.03564,  -17.56231,  -29.87403,  +36.84258,   +0.00000,   +0.00000;
3947343785l,   -0.01064,   -0.00958,   -0.00745,   -0.03320,   +0.05811,   +1.01367,  -17.56231,  -29.87403,  +36.84258,   +0.00000,   +0.00000;
3947346828l,   -0.01171,   -0.00958,   -0.00532,   -0.02246,   +0.05859,   +1.03955,  -17.56231,  -29.87403,  +36.84258,   +0.00000,   +0.00000;
3947349869l,   -0.01383,   -0.01171,   -0.00745,   -0.01367,   +0.06152,   +1.01172,  -17.56231,  -29.87403,  +36.84258,   +0.00000,   +0.00000;
3947352913l,   -0.01277,   -0.00958,   -0.01064,   -0.02246,   +0.05371,   +1.02441,  -17.56231,  -29.87403,  +36.84258,   +0.00000,   +0.00000;
3947355956l,   -0.00958,   -0.01064,   -0.01277,   -0.02539,   +0.05713,   +1.00928,  -17.56231,  -29.87403,  +36.84258,   +0.00000,   +0.00000;
3947359030l,   -0.01277,   -0.00745,   -0.00745,   -0.02051,   +0.05566,   +1.01465,  -17.56231,  -29.87403,  +36.84258,   +0.00000,   +0.00000;
3947362084l,   -0.01171,   -0.01277,   -0.00851,   -0.02344,   +0.05615,   +1.01416,  -17.56231,  -29.87403,  +36.84258,   +0.00000,   +0.00000;
3947365128l,   -0.01383,   -0.00745,   -0.00958,   -0.02832,   +0.06348,   +1.01318,  -17.56231,  -29.87403,  +36.84258,   +0.00000,   +0.00000;
3947368171l,   -0.00851,   -0.00426,   -0.00958,   -0.03271,   +0.05322,   +1.02637,  -17.56231,  -29.87403,  +36.84258,   +0.00000,   +0.00000;
3947371212l,   -0.01064,   -0.00851,   -0.00745,   -0.02686,   +0.05957,   +1.02588,  -17.56231,  -29.87403,  +36.84258,   +0.00000,   +0.00000;
3947374256l,   -0.02022,   -0.00958,   -0.00851,   -0.02344,   +0.06201,   +1.02100,  -17.56231,  -29.87403,  +36.84258,   +0.00000,   +0.00000;
3947377299l,   -0.00851,   -0.00958,   -0.01064,   -0.02051,   +0.05420,   +1.03076,  -17.56231,  -29.87403,  +36.84258,   +0.00000,   +0.00000;
3947380340l,   -0.01277,   -0.01383,   -0.01171,   -0.02246,   +0.05225,   +1.03027,  -17.56231,  -29.87403,  +36.84258,   +0.00000,   +0.00000;
3947383383l,   -0.01064,   -0.01064,   -0.00532,   -0.01904,   +0.04492,   +1.01660,  -17.56231,  -29.87403,  +36.84258,   +0.00000,   +0.00000;
3947386426l,   -0.00958,   -0.01277,   -0.00851,   -0.01904,   +0.05908,   +1.03125,  -17.56231,  -29.87403,  +36.84258,   +0.00000,   +0.00000;
3947389468l,   -0.01703,   -0.00745,   -0.00958,   -0.02490,   +0.05713,   +1.03760,  -17.56231,  -29.87403,  +36.84258,   +0.00000,   +0.00000;
3947392510l,   -0.01383,   -0.01383,   -0.00851,   -0.03662,   +0.04980,   +1.02979,  -17.56231,  -29.87403,  +36.84258,   +0.00000,   +0.00000;
3947395553l,   -0.00958,   -0.01064,   -0.00745,   -0.02979,   +0.05127,   +1.03906,  -17.56231,  -29.87403,  +36.84258,   +0.00000,   +0.00000;
3947398594l,   -0.01490,   -0.00532,   -0.00958,   -0.02441,   +0.04688,   +1.02197,  -17.56231,  -29.87403,  +36.84258,   +0.00000,   +0.00000;
3947401614l,   -0.00958,   -0.00958,   -0.00851,   -0.02295,   +0.05762,   +1.01318,  -17.56231,  -29.87403,  +36.84258,   +0.00000,   +0.00000;
3947404658l,   -0.01490,   -0.00319,   -0.00958,   -0.01807,   +0.05566,   +1.02100,  -17.56231,  -29.87403,  +36.84258,   +0.00000,   +0.00000;
3947407701l,   -0.01064,   -0.00851,   -0.00958,   -0.03125,   +0.05518,   +1.01270,  -17.20020,  -28.78770,  +34.74726,   +0.00000,   +0.00000;
3947410743l,   -0.01596,   -0.00426,   -0.00639,   -0.02100,   +0.04492,   +1.02246,  -17.20020,  -28.78770,  +34.74726,   +0.00000,   +0.00000;
3947413786l,   -0.01277,   -0.01064,   -0.00958,   -0.02344,   +0.05811,   +1.01904,  -17.20020,  -28.78770,  +34.74726,   +0.00000,   +0.00000;
3947416830l,   -0.01277,   -0.00745,   -0.01064,   -0.02490,   +0.05859,   +1.02148,  -17.20020,  -28.78770,  +34.74726,   +0.00000,   +0.00000;
3947419872l,   -0.01064,   -0.01277,   -0.00958,   -0.01904,   +0.05664,   +1.02881,  -17.20020,  -28.78770,  +34.74726,   +0.00000,   +0.00000;
3947422915l,   -0.01171,   -0.00745,   -0.00639,   -0.02441,   +0.05713,   +1.02686,  -17.20020,  -28.78770,  +34.74726,   +0.00000,   +0.00000;
3947425957l,   -0.01490,   -0.00745,   -0.00958,   -0.02441,   +0.05273,   +1.02246,  -17.20020,  -28.78770,  +34.74726,   +0.00000,   +0.00000;
3947429000l,   -0.00851,   -0.01171,   -0.01171,   -0.02832,   +0.05078,   +1.02930,  -17.20020,  -28.78770,  +34.74726,   +0.00000,   +0.00000;
3947432065l,   -0.01064,   -0.00851,   -0.00532,   -0.02832,   +0.05859,   +1.02393,  -17.20020,  -28.78770,  +34.74726,   +0.00000,   +0.00000;
3947435107l,   -0.00958,   -0.00426,   -0.01064,   -0.02539,   +0.05518,   +1.01758,  -17.20020,  -28.78770,  +34.74726,   +0.00000,   +0.00000;
3947438148l,   -0.01277,   -0.00745,   -0.00851,   -0.01709,   +0.05371,   +1.03369,  -17.20020,  -28.78770,  +34.74726,   +0.00000,   +0.00000;
3947441191l,   -0.01171,   -0.00745,   -0.01171,   -0.02148,   +0.05420,   +1.01611,  -17.20020,  -28.78770,  +34.74726,   +0.00000,   +0.00000;
3947444264l,   -0.01916,   -0.00851,   -0.00639,   -0.02002,   +0.04834,   +1.02734,  -17.20020,  -28.78770,  +34.74726,   +0.00000,   +0.00000;
3947447308l,   -0.00851,   -0.00426,   -0.00851,   -0.01758,   +0.05762,   +1.01611,  -17.20020,  -28.78770,  +34.74726,   +0.00000,   +0.00000;
3947450350l,   -0.01596,   -0.01064,   -0.00745,   -0.02734,   +0.05713,   +1.02246,  -17.20020,  -28.78770,  +34.74726,   +0.00000,   +0.00000;
3947453393l,   -0.01277,   -0.00958,   -0.01277,   -0.03174,   +0.05127,   +1.02295,  -17.20020,  -28.78770,  +34.74726,   +0.00000,   +0.00000;
3947456435l,   -0.01916,   -0.01277,   -0.00639,   -0.01807,   +0.06104,   +1.02979,  -17.20020,  -28.78770,  +34.74726,   +0.00000,   +0.00000;
3947459478l,   -0.01171,   -0.00958,   -0.00639,   -0.03125,   +0.04785,   +1.01904,  -17.20020,  -28.78770,  +34.74726,   +0.00000,   +0.00000;
3947462520l,   -0.01916,   -0.00958,   -0.00532,   -0.03174,   +0.05420,   +1.01904,  -17.20020,  -28.78770,  +34.74726,   +0.00000,   +0.00000;
3947465562l,   -0.00958,   -0.00851,   -0.01064,   -0.03076,   +0.05273,   +1.01904,  -17.20020,  -28.78770,  +34.74726,   +0.00000,   +0.00000;
3947468604l,   -0.01277,   -0.01171,   -0.00958,   -0.02002,   +0.06055,   +1.02441,  -17.20020,  -28.78770,  +34.74726,   +0.00000,   +0.00000;
3947471647l,   -0.01596,   -0.01064,   -0.01064,   -0.02734,   +0.05225,   +1.01562,  -17.20020,  -28.78770,  +34.74726,   +0.00000,   +0.00000;
3947474690l,   -0.01277,   -0.00639,   -0.01490,   -0.01465,   +0.05176,   +1.02539,  -17.20020,  -28.78770,  +34.74726,   +0.00000,   +0.00000;
3947477734l,   -0.01383,   -0.01171,   -0.00745,   -0.02783,   +0.06055,   +1.01855,  -17.20020,  -28.78770,  +34.74726,   +0.00000,   +0.00000;
3947480777l,   -0.00958,   -0.00958,   -0.00851,   -0.02783,   +0.06396,   +1.02734,  -17.20020,  -28.78770,  +34.74726,   +0.00000,   +0.00000;
3947483820l,   -0.01171,   -0.00532,   -0.00851,   -0.02441,   +0.04492,   +1.01465,  -17.20020,  -28.78770,  +34.74726,   +0.00000,   +0.00000;
3947486863l,   -0.01171,   -0.00851,   -0.00639,   -0.02295,   +0.05566,   +1.02197,  -17.20020,  -28.78770,  +34.74726,   +0.00000,   +0.00000;
3947489905l,   -0.01277,   -0.00532,   -0.01064,   -0.02344,   +0.05322,   +1.00977,  -17.20020,  -28.78770,  +34.74726,   +0.00000,   +0.00000;
3947492948l,   -0.01171,   -0.00639,   -0.00958,   -0.02393,   +0.04980,   +1.02197,  -17.20020,  -28.78770,  +34.74726,   +0.00000,   +0.00000;
3947495990l,   -0.01383,   -0.00639,   -0.01064,   -0.02051,   +0.06543,   +1.02881,  -17.20020,  -28.78770,  +34.74726,   +0.00000,   +0.00000;
3947499032l,   -0.00958,   -0.01064,   -0.00851,   -0.02930,   +0.05029,   +1.01367,  -17.20020,  -28.78770,  +34.74726,   +0.00000,   +0.00000;
3947502077l,   -0.01171,   -0.01171,   -0.01064,   -0.03174,   +0.05371,   +1.01367,  -17.20020,  -28.78770,  +34.74726,   +0.00000,   +0.00000;
3947505120l,   -0.01171,   -0.00958,   -0.00532,   -0.02002,   +0.05566,   +1.01465,  -17.20020,  -28.78770,  +34.74726,   +0.00000,   +0.00000;
3947508164l,   -0.01277,   -0.01064,   -0.00745,   -0.02441,   +0.06104,   +1.02539,  -17.20020,  -28.78770,  +34.74726,   +0.00000,   +0.00000;
3947511206l,   -0.01064,   -0.00958,   -0.01064,   -0.02832,   +0.06396,   +1.02002,  -17.20020,  -28.78770,  +34.74726,   +0.00000,   +0.00000;
3947514250l,   -0.01383,   -0.01171,   -0.00745,   -0.02881,   +0.05371,   +1.02686,  -17.20020,  -28.78770,  +34.74726,   +0.00000,   +0.00000;
3947517291l,   -0.01171,   -0.00319,   -0.00851,   -0.03418,   +0.06348,   +1.03223,  -17.20020,  -28.78770,  +34.74726,   +0.00000,   +0.00000;
3947520333l,   -0.01383,   -0.01064,   -0.00958,   -0.01758,   +0.06396,   +1.02539,  -17.20020,  -28.78770,  +34.74726,   +0.00000,   +0.00000;
3947523375l,   -0.01490,   -0.00745,   -0.00745,   -0.01611,   +0.05566,   +1.01855,  -17.20020,  -28.78770,  +34.74726,   +0.00000,   +0.00000;
3947526419l,   -0.01171,   -0.00532,   -0.01064,   -0.02783,   +0.05127,   +1.02246,  -17.20020,  -28.78770,  +34.74726,   +0.00000,   +0.00000;
3947529491l,   -0.01277,   -0.01490,   -0.00639,   -0.02441,   +0.05518,   +1.02100,  -17.20020,  -28.78770,  +34.74726,   +0.00000,   +0.00000;
3947532533l,   -0.01171,   -0.00958,   -0.00851,   -0.02832,   +0.06104,   +1.02881,  -17.20020,  -28.78770,  +34.74726,   +0.00000,   +0.00000;
3947535576l,   -0.00851,   -0.00958,   -0.01383,   -0.02881,   +0.05762,   +1.02881,  -17.20020,  -28.78770,  +34.74726,   +0.00000,   +0.00000;
3947538620l,   -0.01171,   -0.01064,   -0.00851,   -0.02490,   +0.05762,   +1.02148,  -17.20020,  -28.78770,  +34.74726,   +0.00000,   +0.00000;
3947541662l,   -0.01703,   -0.00958,   -0.00639,   -0.03125,   +0.05811,   +1.03125,  -17.20020,  -28.78770,  +34.74726,   +0.00000,   +0.00000;
3947544705l,   -0.00639,   -0.01171,   -0.00958,   -0.02832,   +0.06055,   +1.03125,  -17.20020,  -28.78770,  +34.74726,   +0.00000,   +0.00000;
3947547748l,   -0.01383,   -0.01064,   -0.00851,   -0.02441,   +0.05176,   +1.02637,  -17.20020,  -28.78770,  +34.74726,   +0.00000,   +0.00000;
3947550790l,   -0.01171,   -0.00958,   -0.00532,   -0.02490,   +0.04492,   +1.02783,  -17.20020,  -28.78770,  +34.74726,   +0.00000,   +0.00000;
3947553834l,   -0.01596,   -0.00745,   -0.01277,   -0.02100,   +0.05859,   +1.03174,  -17.20020,  -28.78770,  +34.74726,   +0.00000,   +0.00000;
3947556875l,   -0.00958,   -0.00532,   -0.00426,   -0.03516,   +0.05811,   +1.02246,  -17.20020,  -28.78770,  +34.74726,   +0.00000,   +0.00000;
3947559917l,   -0.01277,   -0.00851,   -0.00426,   -0.03271,   +0.04590,   +1.01611,  -17.20020,  -28.78770,  +34.74726,   +0.00000,   +0.00000;
3947562958l,   -0.01383,   -0.00745,   -0.01277,   -0.02490,   +0.06152,   +1.01270,  -17.20020,  -28.78770,  +34.74726,   +0.00000,   +0.00000;
3947566001l,   -0.01277,   -0.00851,   -0.00958,   -0.02734,   +0.06396,   +1.02100,  -17.20020,  -28.78770,  +34.74726,   +0.00000,   +0.00000;
3947569044l,   -0.01596,   -0.00639,   -0.00851,   -0.02197,   +0.05811,   +1.02930,  -17.20020,  -28.78770,  +34.74726,   +0.00000,   +0.00000;
3947572072l,   -0.01171,   -0.01064,   -0.00851,   -0.02881,   +0.05908,   +1.00781,  -17.20020,  -28.78770,  +34.74726,   +0.00000,   +0.00000;
3947575114l,   -0.01277,   -0.01064,   -0.00851,   -0.02393,   +0.05371,   +1.02246,  -17.20020,  -28.78770,  +34.74726,   +0.00000,   +0.00000;
3947578155l,   -0.00851,   -0.01171,   -0.00745,   -0.01855,   +0.06055,   +1.01465,  -17.20020,  -28.78770,  +34.74726,   +0.00000,   +0.00000;
3947581196l,   -0.01383,   -0.00851,   -0.00958,   -0.02197,   +0.05322,   +1.02881,  -17.20020,  -28.78770,  +34.74726,   +0.00000,   +0.00000;
3947584240l,   -0.00639,   -0.01064,   -0.01171,   -0.01709,   +0.05176,   +1.03076,  -17.20020,  -28.78770,  +34.74726,   +0.00000,   +0.00000;
3947587281l,   -0.01596,   -0.00532,   -0.00745,   -0.01855,   +0.05420,   +1.02441,  -17.20020,  -28.78770,  +34.74726,   +0.00000,   +0.00000;
3947590324l,   -0.01383,   -0.00958,   -0.00851,   -0.01611,   +0.06836,   +1.02100,  -17.20020,  -28.78770,  +34.74726,   +0.00000,   +0.00000;
3947593366l,   -0.01064,   -0.00745,   -0.00745,   -0.02588,   +0.06152,   +1.02490,  -17.20020,  -28.78770,  +34.74726,   +0.00000,   +0.00000;
3947596410l,   -0.01383,   -0.00532,   -0.00745,   -0.03125,   +0.04443,   +1.02490,  -17.20020,  -28.78770,  +34.74726,   +0.00000,   +0.00000;
3947599452l,   -0.01703,   -0.00851,   -0.00745,   -0.02295,   +0.05762,   +1.02441,  -17.20020,  -28.78770,  +34.74726,   +0.00000,   +0.00000;
3947602495l,   -0.01171,   -0.00745,   -0.00851,   -0.02246,   +0.05957,   +1.02686,  -17.20020,  -28.78770,  +34.74726,   +0.00000,   +0.00000;
3947605536l,   -0.01171,   -0.00851,   -0.01171,   -0.01660,   +0.05420,   +1.00977,  -17.20020,  -28.78770,  +34.74726,   +0.00000,   +0.00000;
3947608579l,   -0.01703,   -0.00851,   -0.00426,   -0.02881,   +0.06299,   +1.01904,  -17.20020,  -28.78770,  +34.74726,   +0.00000,   +0.00000;
3947611614l,   -0.01596,   -0.00745,   -0.00958,   -0.02148,   +0.05811,   +1.02637,  -17.20020,  -28.78770,  +34.74726,   +0.00000,   +0.00000;
3947614658l,   -0.01383,   -0.01277,   -0.00745,   -0.02686,   +0.06055,   +1.02490,  -17.20020,  -28.78770,  +34.74726,   +0.00000,   +0.00000;
3947617729l,   -0.00532,   -0.00639,   -0.00426,   -0.02100,   +0.06055,   +1.01318,  -17.20020,  -28.78770,  +34.74726,   +0.00000,   +0.00000;
3947620772l,   -0.01490,   -0.00851,   -0.01171,   -0.02539,   +0.04639,   +1.03906,  -17.20020,  -28.78770,  +34.74726,   +0.00000,   +0.00000;
3947623816l,   -0.01703,   -0.00532,   -0.00851,   -0.02979,   +0.05029,   +1.02197,  -17.20020,  -28.78770,  +34.74726,   +0.00000,   +0.00000;
3947626858l,   -0.00745,   -0.01277,   -0.00851,   -0.02930,   +0.05371,   +1.01123,  -17.20020,  -28.78770,  +34.74726,   +0.00000,   +0.00000;
3947629902l,   -0.00958,   -0.00851,   -0.01277,   -0.02100,   +0.04834,   +1.03174,  -17.20020,  -28.78770,  +34.74726,   +0.00000,   +0.00000;
3947632945l,   -0.01064,   -0.00426,   -0.00958,   -0.02441,   +0.05566,   +1.02734,  -17.20020,  -28.78770,  +34.74726,   +0.00000,   +0.00000;
3947635987l,   -0.01490,   -0.00851,   -0.00851,   -0.01514,   +0.04590,   +1.02783,  -17.20020,  -28.78770,  +34.74726,   +0.00000,   +0.00000;
3947639029l,   -0.01171,   -0.00851,   -0.01064,   -0.02490,   +0.05908,   +1.01807,  -17.20020,  -28.78770,  +34.74726,   +0.00000,   +0.00000;
3947642076l,   -0.01383,   -0.00958,   -0.00745,   -0.01221,   +0.04834,   +1.02100,  -17.20020,  -28.78770,  +34.74726,   +0.00000,   +0.00000;
3947645118l,   -0.01383,   -0.01171,   -0.00958,   -0.02393,   +0.06494,   +1.02637,  -17.20020,  -28.78770,  +34.74726,   +0.00000,   +0.00000;
3947648160l,   -0.01277,   -0.01064,   -0.00745,   -0.01221,   +0.04932,   +1.02393,  -17.20020,  -28.78770,  +34.74726,   +0.00000,   +0.00000;
3947651202l,   -0.01064,   -0.00851,   -0.01277,   -0.01807,   +0.04541,   +1.01758,  -17.20020,  -28.78770,  +34.74726,   +0.00000,   +0.00000;
3947654246l,   -0.01596,   -0.01383,   -0.01171,   -0.02832,   +0.04932,   +1.02197,  -17.20020,  -28.78770,  +34.74726,   +0.00000,   +0.00000;
3947657289l,   -0.01703,   -0.00639,   -0.00532,   -0.02588,   +0.05518,   +1.02832,  -17.20020,  -28.78770,  +34.74726,   +0.00000,   +0.00000;
3947660333l,   -0.01490,   -0.00745,   -0.00851,   -0.02979,   +0.05811,   +1.02051,  -17.20020,  -28.78770,  +34.74726,   +0.00000,   +0.00000;
3947663376l,   -0.00745,   -0.01064,   -0.00851,   -0.03174,   +0.05908,   +1.01953,  -17.20020,  -28.78770,  +34.74726,   +0.00000,   +0.00000;
3947666417l,   -0.01596,   -0.00532,   -0.00851,   -0.02441,   +0.05420,   +1.03467,  -17.20020,  -28.78770,  +34.74726,   +0.00000,   +0.00000;
3947669459l,   -0.00958,   -0.01383,   -0.00532,   -0.02393,   +0.05322,   +1.02051,  -17.20020,  -28.78770,  +34.74726,   +0.00000,   +0.00000;
3947672501l,   -0.01277,   -0.00851,   -0.01064,   -0.03027,   +0.06396,   +1.02441,  -17.20020,  -28.78770,  +34.74726,   +0.00000,   +0.00000;
3947675544l,   -0.00958,   -0.01277,   -0.01064,   -0.02734,   +0.06348,   +1.03174,  -17.20020,  -28.78770,  +34.74726,   +0.00000,   +0.00000;
3947678586l,   -0.00851,   -0.00745,   -0.00745,   -0.01904,   +0.05615,   +1.02930,  -17.20020,  -28.78770,  +34.74726,   +0.00000,   +0.00000;
3947681617l,   -0.01171,   -0.00958,   -0.01383,   -0.02002,   +0.05322,   +1.02734,  -17.20020,  -28.78770,  +34.74726,   +0.00000,   +0.00000;
3947684662l,   -0.01171,   -0.00319,   -0.01277,   -0.02686,   +0.05127,   +1.03223,  -17.20020,  -28.78770,  +34.74726,   +0.00000,   +0.00000;
3947687705l,   -0.01383,   -0.00958,   -0.00745,   -0.02539,   +0.05566,   +1.02832,  -17.20020,  -28.78770,  +34.74726,   +0.00000,   +0.00000;
3947690746l,   -0.01171,   -0.00426,   -0.00745,   -0.02588,   +0.05420,   +1.03271,  -17.20020,  -28.78770,  +34.74726,   +0.00000,   +0.00000;
3947693789l,   -0.01064,   -0.00851,   -0.01064,   -0.01660,   +0.06152,   +1.03271,  -17.20020,  -28.78770,  +34.74726,   +0.00000,   +0.00000;
3947696831l,   -0.01064,   -0.01064,   -0.00426,   -0.02393,   +0.05664,   +1.02930,  -17.20020,  -28.78770,  +34.74726,   +0.00000,   +0.00000;
3947699873l,   -0.01171,   -0.00532,   -0.00958,   -0.02295,   +0.05713,   +1.01416,  -17.20020,  -28.78770,  +34.74726,   +0.00000,   +0.00000;
3947702947l,   -0.01064,   -0.01596,   -0.00851,   -0.03320,   +0.04785,   +1.02686,  -17.20020,  -28.78770,  +34.74726,   +0.00000,   +0.00000;
3947705989l,   -0.01596,   -0.00745,   -0.01064,   -0.02148,   +0.05078,   +1.01709,  -17.20020,  -28.78770,  +34.74726,   +0.00000,   +0.00000;
3947709031l,   -0.00958,   -0.00851,   -0.01171,   -0.02881,   +0.05225,   +1.01709,  -17.20020,  -28.78770,  +34.74726,   +0.00000,   +0.00000;
3947712074l,   -0.01383,   -0.00639,   -0.00639,   -0.01709,   +0.05176,   +1.01367,  -17.20020,  -28.78770,  +34.74726,   +0.00000,   +0.00000;
3947715118l,   -0.01596,   -0.00639,   -0.00639,   -0.03613,   +0.04395,   +1.02979,  -17.20020,  -28.78770,  +34.74726,   +0.00000,   +0.00000;
3947718162l,   -0.01277,   -0.00532,   -0.00958,   -0.02295,   +0.05078,   +1.02100,  -17.20020,  -28.78770,  +34.74726,   +0.00000,   +0.00000;
3947721204l,   -0.01809,   -0.00426,   -0.01064,   -0.02002,   +0.05566,   +1.01416,  -17.20020,  -28.78770,  +34.74726,   +0.00000,   +0.00000;
3947724247l,   -0.01064,   -0.00958,   -0.00639,   -0.02197,   +0.05371,   +1.01611,  -17.20020,  -28.78770,  +34.74726,   +0.00000,   +0.00000;
3947727290l,   -0.01490,   -0.00851,   -0.00745,   -0.02881,   +0.05420,   +1.01660,  -17.20020,  -28.78770,  +34.74726,   +0.00000,   +0.00000;
3947730331l,   -0.00851,   -0.01171,   -0.00851,   -0.02344,   +0.05127,   +1.02734,  -17.20020,  -28.78770,  +34.74726,   +0.00000,   +0.00000;
3947733374l,   -0.01277,   -0.01171,   -0.00639,   -0.02393,   +0.06641,   +1.02979,  -17.20020,  -28.78770,  +34.74726,   +0.00000,   +0.00000;
3947736417l,   -0.00851,   -0.01383,   -0.01171,   -0.02344,   +0.06055,   +1.02197,  -17.20020,  -28.78770,  +34.74726,   +0.00000,   +0.00000;
3947739459l,   -0.01171,   -0.00532,   -0.00958,   -0.02002,   +0.05859,   +1.03516,  -17.20020,  -28.78770,  +34.74726,   +0.00000,   +0.00000;
3947742502l,   -0.01277,   -0.00958,   -0.00745,   -0.02832,   +0.05664,   +1.01318,  -17.20020,  -28.78770,  +34.74726,   +0.00000,   +0.00000;
3947745546l,   -0.01064,   -0.00745,   -0.00851,   -0.03076,   +0.05811,   +1.01709,  -17.20020,  -28.78770,  +34.74726,   +0.00000,   +0.00000;
3947748587l,   -0.01383,   -0.00745,   -0.01064,   -0.02490,   +0.06104,   +1.01953,  -17.20020,  -28.78770,  +34.74726,   +0.00000,   +0.00000;
3947751615l,   -0.00745,   -0.00851,   -0.01064,   -0.02588,   +0.05322,   +1.01270,  -17.20020,  -28.78770,  +34.74726,   +0.00000,   +0.00000;
3947754658l,   -0.01277,   -0.00745,   -0.01171,   -0.02148,   +0.05566,   +1.02637,  -17.20020,  -28.78770,  +34.74726,   +0.00000,   +0.00000;
3947757700l,   -0.01171,   -0.00851,   -0.00532,   -0.02393,   +0.04639,   +1.02051,  -17.20020,  -28.78770,  +34.74726,   +0.00000,   +0.00000;
3947760741l,   -0.01596,   -0.00851,   -0.00639,   -0.01855,   +0.05273,   +1.00879,  -17.20020,  -28.78770,  +34.74726,   +0.00000,   +0.00000;
3947763783l,   -0.01490,   -0.00851,   -0.00851,   -0.02930,   +0.05518,   +1.01709,  -17.20020,  -28.78770,  +34.74726,   +0.00000,   +0.00000;
3947766826l,   -0.01596,   -0.00958,   -0.00851,   -0.02197,   +0.05957,   +1.02734,  -17.20020,  -28.78770,  +34.74726,   +0.00000,   +0.00000;
3947769868l,   -0.01809,   -0.00958,   -0.00851,   -0.02002,   +0.05420,   +1.02100,  -17.20020,  -28.78770,  +34.74726,   +0.00000,   +0.00000;
3947772911l,   -0.01171,   -0.01171,   -0.00851,   -0.02881,   +0.05957,   +1.01465,  -17.20020,  -28.78770,  +34.74726,   +0.00000,   +0.00000;
3947775953l,   -0.01171,   -0.01596,   -0.00851,   -0.02783,   +0.05420,   +1.03662,  -17.20020,  -28.78770,  +34.74726,   +0.00000,   +0.00000;
3947778995l,   -0.01383,   -0.01064,   -0.01064,   -0.02344,   +0.05420,   +1.02588,  -17.20020,  -28.78770,  +34.74726,   +0.00000,   +0.00000;
3947782068l,   -0.01703,   -0.00958,   -0.00851,   -0.02002,   +0.05713,   +1.02295,  -17.20020,  -28.78770,  +34.74726,   +0.00000,   +0.00000;
3947785111l,   -0.01171,   -0.01064,   -0.01064,   -0.02051,   +0.05371,   +1.03125,  -17.20020,  -28.78770,  +34.74726,   +0.00000,   +0.00000;
3947788194l,   -0.01383,   -0.00532,   -0.00958,   -0.02100,   +0.05176,   +1.02588,  -17.20020,  -28.78770,  +34.74726,   +0.00000,   +0.00000;
3947791236l,   -0.01171,   -0.01277,   -0.01064,   -0.03174,   +0.05322,   +1.02197,  -17.20020,  -28.78770,  +34.74726,   +0.00000,   +0.00000;
3947794278l,   -0.01383,   -0.00958,   -0.00958,   -0.03027,   +0.05273,   +1.01270,  -17.20020,  -28.78770,  +34.74726,   +0.00000,   +0.00000;
3947797321l,   -0.01064,   -0.00745,   -0.00958,   -0.02197,   +0.05762,   +1.01904,  -17.20020,  -28.78770,  +34.74726,   +0.00000,   +0.00000;
3947800363l,   -0.01064,   -0.00958,   -0.00745,   -0.02051,   +0.05127,   +1.01465,  -17.20020,  -28.78770,  +34.74726,   +0.00000,   +0.00000;
3947803406l,   -0.01171,   -0.01064,   -0.01490,   -0.02393,   +0.05176,   +1.01855,  -17.20020,  -28.78770,  +34.74726,   +0.00000,   +0.00000;
3947806450l,   -0.01171,   -0.00851,   -0.01277,   -0.02734,   +0.04932,   +1.02100,  -17.20020,  -28.78770,  +34.74726,   +0.00000,   +0.00000;
3947809493l,   -0.01277,   -0.00958,   -0.00532,   -0.02979,   +0.05762,   +1.00928,  -17.20020,  -28.78770,  +34.74726,   +0.00000,   +0.00000;
3947812535l,   -0.01171,   -0.00958,   -0.00745,   -0.02344,   +0.05176,   +1.01562,  -17.20020,  -28.78770,  +34.74726,   +0.00000,   +0.00000;
3947815577l,   -0.00958,   -0.00851,   -0.01383,   -0.02930,   +0.05566,   +1.03271,  -17.20020,  -28.78770,  +34.74726,   +0.00000,   +0.00000;
3947818618l,   -0.00851,   -0.00851,   -0.00639,   -0.02539,   +0.05127,   +1.02783,  -17.20020,  -28.78770,  +34.74726,   +0.00000,   +0.00000;
3947821661l,   -0.01383,   -0.00958,   -0.01383,   -0.01465,   +0.04932,   +1.02100,  -17.20020,  -28.78770,  +34.74726,   +0.00000,   +0.00000;
3947824703l,   -0.01277,   -0.00532,   -0.00958,   -0.02246,   +0.05078,   +1.02148,  -17.20020,  -28.78770,  +34.74726,   +0.00000,   +0.00000;
3947827745l,   -0.01596,   -0.00851,   -0.00745,   -0.02246,   +0.05518,   +1.01807,  -17.20020,  -28.78770,  +34.74726,   +0.00000,   +0.00000;
3947830787l,   -0.01596,   -0.01171,   -0.00639,   -0.01221,   +0.05566,   +1.01953,  -17.20020,  -28.78770,  +34.74726,   +0.00000,   +0.00000;
3947833831l,   -0.01490,   -0.00532,   -0.01277,   -0.02393,   +0.04834,   +1.02148,  -17.20020,  -28.78770,  +34.74726,   +0.00000,   +0.00000;
3947836873l,   -0.01277,   -0.00958,   -0.00319,   -0.01904,   +0.05322,   +1.02588,  -17.20020,  -28.78770,  +34.74726,   +0.00000,   +0.00000;
3947839916l,   -0.01171,   -0.00745,   -0.01171,   -0.01611,   +0.05518,   +1.02246,  -17.20020,  -28.78770,  +34.74726,   +0.00000,   +0.00000;
3947842959l,   -0.00639,   -0.00745,   -0.00532,   -0.02197,   +0.06104,   +1.03467,  -17.20020,  -28.78770,  +34.74726,   +0.00000,   +0.00000;
3947846000l,   -0.01490,   -0.01171,   -0.00745,   -0.02490,   +0.05176,   +1.01758,  -17.20020,  -28.78770,  +34.74726,   +0.00000,   +0.00000;
3947849043l,   -0.00745,   -0.01064,   -0.01383,   -0.01855,   +0.06299,   +1.02148,  -17.20020,  -28.78770,  +34.74726,   +0.00000,   +0.00000;
3947852072l,   -0.01064,   -0.00851,   -0.00532,   -0.02002,   +0.05371,   +1.01660,  -17.20020,  -28.78770,  +34.74726,   +0.00000,   +0.00000;
3947855114l,   -0.01277,   -0.00745,   -0.01064,   -0.02441,   +0.05762,   +1.02637,  -17.20020,  -28.78770,  +34.74726,   +0.00000,   +0.00000;
3947858156l,   -0.01064,   -0.01171,   -0.01171,   -0.02490,   +0.05371,   +1.01709,  -17.20020,  -28.78770,  +34.74726,   +0.00000,   +0.00000;
3947861200l,   -0.01064,   -0.01064,   -0.00958,   -0.02344,   +0.06055,   +1.02539,  -17.20020,  -28.78770,  +34.74726,   +0.00000,   +0.00000;
3947864242l,   -0.01277,   -0.01277,   -0.00532,   -0.02441,   +0.05225,   +1.02637,  -17.20020,  -28.78770,  +34.74726,   +0.00000,   +0.00000;
3947867285l,   -0.01171,   -0.00851,   -0.00958,   -0.02734,   +0.05566,   +1.01953,  -17.20020,  -28.78770,  +34.74726,   +0.00000,   +0.00000;
3947870327l,   -0.01064,   -0.00958,   -0.00639,   -0.02783,   +0.05762,   +1.01416,  -17.20020,  -28.78770,  +34.74726,   +0.00000,   +0.00000;
3947873401l,   -0.01596,   -0.00958,   -0.00958,   -0.02490,   +0.04932,   +1.02246,  -17.20020,  -28.78770,  +34.74726,   +0.00000,   +0.00000;
3947876446l,   -0.01383,   -0.00532,   -0.00745,   -0.02490,   +0.05029,   +1.02197,  -17.20020,  -28.78770,  +34.74726,   +0.00000,   +0.00000;
3947879488l,   -0.01064,   -0.00745,   -0.00851,   -0.03613,   +0.05029,   +1.01562,  -17.20020,  -28.78770,  +34.74726,   +0.00000,   +0.00000;
3947882530l,   -0.01383,   -0.01171,   -0.01277,   -0.02783,   +0.06250,   +1.02051,  -17.20020,  -28.78770,  +34.74726,   +0.00000,   +0.00000;
3947885572l,   -0.01490,   -0.01277,   -0.00532,   -0.02002,   +0.05371,   +1.02100,  -17.20020,  -28.78770,  +34.74726,   +0.00000,   +0.00000;
3947888615l,   -0.01383,   -0.00426,   -0.00745,   -0.02979,   +0.06787,   +1.02539,  -17.20020,  -28.78770,  +34.74726,   +0.00000,   +0.00000;
3947891657l,   -0.01064,   -0.00958,   -0.00532,   -0.02344,   +0.05908,   +1.02002,  -17.20020,  -28.78770,  +34.74726,   +0.00000,   +0.00000;
3947894700l,   -0.01490,   -0.00532,   -0.00958,   -0.01904,   +0.06641,   +1.02832,  -17.20020,  -28.78770,  +34.74726,   +0.00000,   +0.00000;
3947897742l,   -0.01383,   -0.00745,   -0.00532,   -0.02148,   +0.05371,   +1.01465,  -17.20020,  -28.78770,  +34.74726,   +0.00000,   +0.00000;
3947900784l,   -0.00851,   -0.01171,   -0.01383,   -0.01709,   +0.05566,   +1.02002,  -17.20020,  -28.78770,  +34.74726,   +0.00000,   +0.00000;
3947903827l,   -0.01171,   -0.01171,   -0.00851,   -0.02197,   +0.05615,   +1.01709,  -17.20020,  -28.78770,  +34.74726,   +0.00000,   +0.00000;
3947906870l,   -0.00958,   -0.00958,   -0.01171,   -0.02441,   +0.05615,   +1.02246,  -17.20020,  -28.78770,  +34.74726,   +0.00000,   +0.00000;
3947909912l,   -0.00958,   -0.01064,   -0.01277,   -0.02588,   +0.05811,   +1.03174,  -15.93281,  -29.33086,  +36.66797,   +0.00000,   +0.00000;
3947912953l,   -0.01596,   -0.00639,   -0.00639,   -0.02539,   +0.05322,   +1.01953,  -15.93281,  -29.33086,  +36.66797,   +0.00000,   +0.00000;
3947915996l,   -0.00851,   -0.01064,   -0.00745,   -0.02832,   +0.05127,   +1.00977,  -15.93281,  -29.33086,  +36.66797,   +0.00000,   +0.00000;
3947919038l,   -0.01064,   -0.00745,   -0.00851,   -0.03223,   +0.05664,   +1.01855,  -15.93281,  -29.33086,  +36.66797,   +0.00000,   +0.00000;
3947922076l,   -0.01383,   -0.00745,   -0.00851,   -0.03027,   +0.04541,   +1.02930,  -15.93281,  -29.33086,  +36.66797,   +0.00000,   +0.00000;
3947925120l,   -0.01490,   -0.00851,   -0.00851,   -0.01904,   +0.05176,   +1.01318,  -15.93281,  -29.33086,  +36.66797,   +0.00000,   +0.00000;
3947928162l,   -0.01277,   -0.00319,   -0.01064,   -0.02490,   +0.06250,   +1.01758,  -15.93281,  -29.33086,  +36.66797,   +0.00000,   +0.00000;
3947931206l,   -0.01703,   -0.00639,   -0.00745,   -0.02979,   +0.05859,   +1.03174,  -15.93281,  -29.33086,  +36.66797,   +0.00000,   +0.00000;
3947934249l,   -0.01490,   -0.00958,   -0.01171,   -0.02539,   +0.05029,   +1.02490,  -15.93281,  -29.33086,  +36.66797,   +0.00000,   +0.00000;
3947937292l,   -0.01383,   -0.01064,   -0.00426,   -0.02832,   +0.05420,   +1.02051,  -15.93281,  -29.33086,  +36.66797,   +0.00000,   +0.00000;
3947940333l,   -0.01490,   -0.00851,   -0.01383,   -0.02197,   +0.04492,   +1.03027,  -15.93281,  -29.33086,  +36.66797,   +0.00000,   +0.00000;
3947943376l,   -0.02022,   -0.00745,   -0.00958,   -0.02100,   +0.05566,   +1.01758,  -15.93281,  -29.33086,  +36.66797,   +0.00000,   +0.00000;
3947946418l,   -0.00958,   -0.01171,   -0.01383,   -0.02441,   +0.05127,   +1.02295,  -15.93281,  -29.33086,  +36.66797,   +0.00000,   +0.00000;
3947949460l,   -0.01916,   -0.00851,   -0.00851,   -0.03711,   +0.05127,   +1.02686,  -15.93281,  -29.33086,  +36.66797,   +0.00000,   +0.00000;
3947952503l,   -0.00851,   -0.00639,   -0.01171,   -0.01709,   +0.05273,   +1.01611,  -15.93281,  -29.33086,  +36.66797,   +0.00000,   +0.00000;
3947955546l,   -0.01809,   -0.00532,   -0.00532,   -0.02539,   +0.05127,   +1.02686,  -15.93281,  -29.33086,  +36.66797,   +0.00000,   +0.00000;
3947958589l,   -0.01171,   -0.00958,   -0.00745,   -0.02539,   +0.05518,   +1.02295,  -15.93281,  -29.33086,  +36.66797,   +0.00000,   +0.00000;
3947961665l,   -0.01277,   -0.00532,   -0.00532,   -0.02930,   +0.06885,   +1.01514,  -15.93281,  -29.33086,  +36.66797,   +0.00000,   +0.00000;
3947964708l,   -0.01383,   -0.00851,   -0.00639,   -0.02100,   +0.06299,   +1.01270,  -15.93281,  -29.33086,  +36.66797,   +0.00000,   +0.00000;
3947967750l,   -0.01277,   -0.00532,   -0.00958,   -0.03027,   +0.04688,   +1.02246,  -15.93281,  -29.33086,  +36.66797,   +0.00000,   +0.00000;
3947970792l,   -0.01171,   -0.01171,   -0.00958,   -0.02539,   +0.05420,   +1.02197,  -15.93281,  -29.33086,  +36.66797,   +0.00000,   +0.00000;
3947973834l,   -0.00745,   -0.00426,   -0.00958,   -0.02002,   +0.05029,   +1.02002,  -15.93281,  -29.33086,  +36.66797,   +0.00000,   +0.00000;
3947976878l,   -0.01383,   -0.01277,   -0.00745,   -0.03125,   +0.05811,   +1.01904,  -15.93281,  -29.33086,  +36.66797,   +0.00000,   +0.00000;
3947979920l,   -0.01277,   -0.01171,   -0.00851,   -0.02344,   +0.05615,   +1.02539,  -15.93281,  -29.33086,  +36.66797,   +0.00000,   +0.00000;
3947982962l,   -0.01064,   -0.01064,   -0.00958,   -0.01855,   +0.05078,   +1.02441,  -15.93281,  -29.33086,  +36.66797,   +0.00000,   +0.00000;
3947986006l,   -0.01383,   -0.00958,   -0.01064,   -0.02344,   +0.05713,   +1.02441,  -15.93281,  -29.33086,  +36.66797,   +0.00000,   +0.00000;
3947989048l,   -0.01171,   -0.00532,   -0.00851,   -0.03223,   +0.04639,   +1.02930,  -15.93281,  -29.33086,  +36.66797,   +0.00000,   +0.00000;
3947992072l,   -0.01277,   -0.00851,   -0.00532,   -0.02441,   +0.04785,   +1.02246,  -15.93281,  -29.33086,  +36.66797,   +0.00000,   +0.00000;
3947995115l,   -0.01490,   -0.01064,   -0.00851,   -0.02197,   +0.05029,   +1.02979,  -15.93281,  -29.33086,  +36.66797,   +0.00000,   +0.00000;
3947998155l,   -0.01277,   -0.00532,   -0.00639,   -0.02197,   +0.05713,   +1.01660,  -15.93281,  -29.33086,  +36.66797,   +0.00000,   +0.00000;
3948001197l,   -0.01277,   -0.00958,   -0.01277,   -0.02783,   +0.04834,   +1.02100,  -15.93281,  -29.33086,  +36.66797,   +0.00000,   +0.00000;
3948004240l,   -0.01277,   -0.00319,   -0.00745,   -0.02100,   +0.04980,   +1.02148,  -15.93281,  -29.33086,  +36.66797,   +0.00000,   +0.00000;
3948007283l,   -0.01383,   -0.00958,   -0.01171,   -0.02783,   +0.05908,   +1.01709,  -15.93281,  -29.33086,  +36.66797,   +0.00000,   +0.00000;
3948010325l,   -0.01171,   -0.00532,   -0.00851,   -0.02393,   +0.05908,   +1.00830,  -15.93281,  -29.33086,  +36.66797,   +0.00000,   +0.00000;
3948013368l,   -0.01171,   -0.01383,   -0.00745,   -0.01904,   +0.05859,   +1.02246,  -15.93281,  -29.33086,  +36.66797,   +0.00000,   +0.00000;
3948016411l,   -0.01703,   -0.01171,   -0.00745,   -0.03418,   +0.05811,   +1.00977,  -15.93281,  -29.33086,  +36.66797,   +0.00000,   +0.00000;
3948019453l,   -0.01171,   -0.00958,   -0.01064,   -0.01904,   +0.05713,   +1.02637,  -15.93281,  -29.33086,  +36.66797,   +0.00000,   +0.00000;
3948022496l,   -0.01383,   -0.00851,   -0.00745,   -0.02490,   +0.05225,   +1.03223,  -15.93281,  -29.33086,  +36.66797,   +0.00000,   +0.00000;
3948025537l,   -0.01596,   -0.01596,   -0.00851,   -0.03125,   +0.05273,   +1.01416,  -15.93281,  -29.33086,  +36.66797,   +0.00000,   +0.00000;
3948028579l,   -0.01383,   -0.00426,   -0.01171,   -0.03564,   +0.04932,   +1.02197,  -15.93281,  -29.33086,  +36.66797,   +0.00000,   +0.00000;
3948031614l,   -0.01171,   -0.00745,   -0.01171,   -0.02344,   +0.05664,   +1.01709,  -15.93281,  -29.33086,  +36.66797,   +0.00000,   +0.00000;
3948034657l,   -0.01277,   -0.00532,   -0.00532,   -0.02246,   +0.05566,   +1.02490,  -15.38965,  -29.87403,  +36.84258,   +0.00000,   +0.00000;
3948037700l,   -0.01277,   -0.01064,   -0.00851,   -0.02930,   +0.05078,   +1.02979,  -15.38965,  -29.87403,  +36.84258,   +0.00000,   +0.00000;
3948040743l,   -0.01064,   -0.00851,   -0.00851,   -0.02539,   +0.06885,   +1.02881,  -15.38965,  -29.87403,  +36.84258,   +0.00000,   +0.00000;
3948043787l,   -0.01596,   -0.00532,   -0.00745,   -0.02783,   +0.05762,   +1.01318,  -15.38965,  -29.87403,  +36.84258,   +0.00000,   +0.00000;
3948046861l,   -0.00958,   -0.01277,   -0.01064,   -0.02393,   +0.05713,   +1.02588,  -15.38965,  -29.87403,  +36.84258,   +0.00000,   +0.00000;
3948049904l,   -0.01703,   -0.00958,   -0.00532,   -0.02246,   +0.06055,   +1.01611,  -15.38965,  -29.87403,  +36.84258,   +0.00000,   +0.00000;
3948052948l,   -0.01277,   -0.00745,   -0.00958,   -0.02441,   +0.05859,   +1.01758,  -15.38965,  -29.87403,  +36.84258,   +0.00000,   +0.00000;
3948055990l,   -0.00851,   -0.00851,   -0.00851,   -0.02051,   +0.05127,   +1.02734,  -15.38965,  -29.87403,  +36.84258,   +0.00000,   +0.00000;
3948059032l,   -0.00745,   -0.00532,   -0.00851,   -0.02588,   +0.05811,   +1.03516,  -15.38965,  -29.87403,  +36.84258,   +0.00000,   +0.00000;
3948062075l,   -0.01277,   -0.01064,   -0.01064,   -0.02783,   +0.05371,   +1.02246,  -15.38965,  -29.87403,  +36.84258,   +0.00000,   +0.00000;
3948065117l,   -0.01277,   -0.00745,   -0.00958,   -0.02588,   +0.04541,   +1.02295,  -15.38965,  -29.87403,  +36.84258,   +0.00000,   +0.00000;
3948068161l,   -0.01703,   -0.01064,   -0.00851,   -0.01562,   +0.06201,   +1.01025,  -15.38965,  -29.87403,  +36.84258,   +0.00000,   +0.00000;
3948071203l,   -0.01383,   -0.00851,   -0.00958,   -0.02588,   +0.06055,   +1.02100,  -15.38965,  -29.87403,  +36.84258,   +0.00000,   +0.00000;
3948074246l,   -0.01596,   -0.00958,   -0.00639,   -0.01904,   +0.05176,   +1.02686,  -15.38965,  -29.87403,  +36.84258,   +0.00000,   +0.00000;
3948077292l,   -0.01277,   -0.00745,   -0.00851,   -0.02588,   +0.05908,   +1.03320,  -15.38965,  -29.87403,  +36.84258,   +0.00000,   +0.00000;
3948080334l,   -0.01596,   -0.00958,   -0.00639,   -0.02246,   +0.05566,   +1.02441,  -15.38965,  -29.87403,  +36.84258,   +0.00000,   +0.00000;
3948083377l,   -0.01383,   -0.01064,   -0.00958,   -0.02930,   +0.05273,   +1.02588,  -15.38965,  -29.87403,  +36.84258,   +0.00000,   +0.00000;
3948086418l,   -0.01171,   -0.01064,   -0.00958,   -0.02979,   +0.05566,   +1.01953,  -15.38965,  -29.87403,  +36.84258,   +0.00000,   +0.00000;
3948089459l,   -0.01171,   -0.01490,   -0.00745,   -0.02344,   +0.04785,   +1.02197,  -15.38965,  -29.87403,  +36.84258,   +0.00000,   +0.00000;
3948092502l,   -0.01064,   -0.00532,   -0.01064,   -0.02002,   +0.05420,   +1.02441,  -15.38965,  -29.87403,  +36.84258,   +0.00000,   +0.00000;
3948095544l,   -0.00958,   -0.00851,   -0.00958,   -0.01660,   +0.05908,   +1.01562,  -15.38965,  -29.87403,  +36.84258,   +0.00000,   +0.00000;
3948098586l,   -0.01171,   -0.00639,   -0.00958,   -0.02686,   +0.05371,   +1.02637,  -15.38965,  -29.87403,  +36.84258,   +0.00000,   +0.00000;
3948101617l,   -0.01171,   -0.00532,   -0.00532,   -0.02930,   +0.05420,   +1.02246,  -15.38965,  -29.87403,  +36.84258,   +0.00000,   +0.00000;
3948104661l,   -0.01383,   -0.00745,   -0.01171,   -0.02588,   +0.05615,   +1.02637,  -15.38965,  -29.87403,  +36.84258,   +0.00000,   +0.00000;
3948107703l,   -0.01277,   -0.00745,   -0.00851,   -0.02441,   +0.05225,   +1.02539,  -15.38965,  -29.87403,  +36.84258,   +0.00000,   +0.00000;
3948110746l,   -0.01064,   -0.00532,   -0.00958,   -0.02881,   +0.04590,   +1.02051,  -15.38965,  -29.87403,  +36.84258,   +0.00000,   +0.00000;
3948113789l,   -0.00958,   -0.01064,   -0.00745,   -0.02539,   +0.05127,   +1.02002,  -15.38965,  -29.87403,  +36.84258,   +0.00000,   +0.00000;
3948116830l,   -0.00745,   -0.00851,   -0.00426,   -0.02734,   +0.05420,   +1.01562,  -15.38965,  -29.87403,  +36.84258,   +0.00000,   +0.00000;
3948119872l,   -0.01171,   -0.01171,   -0.01064,   -0.02197,   +0.06201,   +1.01416,  -15.38965,  -29.87403,  +36.84258,   +0.00000,   +0.00000;
3948122914l,   -0.00958,   -0.00745,   -0.00532,   -0.02295,   +0.05957,   +1.01807,  -15.38965,  -29.87403,  +36.84258,   +0.00000,   +0.00000;
3948125957l,   -0.01383,   -0.01064,   -0.00851,   -0.02051,   +0.04834,   +1.01758,  -15.38965,  -29.87403,  +36.84258,   +0.00000,   +0.00000;
3948128999l,   -0.01277,   -0.00958,   -0.00639,   -0.02930,   +0.04688,   +1.02246,  -15.38965,  -29.87403,  +36.84258,   +0.00000,   +0.00000;
3948132074l,   -0.01490,   -0.00745,   -0.01171,   -0.02148,   +0.05078,   +1.02100,  -15.38965,  -29.87403,  +36.84258,   +0.00000,   +0.00000;
3948135117l,   -0.01064,   -0.00851,   -0.00532,   -0.02930,   +0.06055,   +1.00928,  -15.38965,  -29.87403,  +36.84258,   +0.00000,   +0.00000;
3948138160l,   -0.01064,   -0.00745,   -0.01064,   -0.02539,   +0.04736,   +1.02930,  -15.38965,  -29.87403,  +36.84258,   +0.00000,   +0.00000;
3948141203l,   -0.01064,   -0.01064,   -0.00639,   -0.02100,   +0.05615,   +1.03857,  -15.38965,  -29.87403,  +36.84258,   +0.00000,   +0.00000;
3948144245l,   -0.01490,   -0.01383,   -0.01383,   -0.03076,   +0.06250,   +1.02539,  -15.38965,  -29.87403,  +36.84258,   +0.00000,   +0.00000;
3948147287l,   -0.01277,   -0.00851,   -0.00213,   -0.02881,   +0.06055,   +1.02393,  -15.38965,  -29.87403,  +36.84258,   +0.00000,   +0.00000;
3948150330l,   -0.01277,   -0.00639,   -0.00851,   -0.01904,   +0.05322,   +1.01611,  -15.38965,  -29.87403,  +36.84258,   +0.00000,   +0.00000;
3948153372l,   -0.01277,   -0.00532,   -0.00532,   -0.02100,   +0.05615,   +1.00439,  -15.38965,  -29.87403,  +36.84258,   +0.00000,   +0.00000;
3948156414l,   -0.01383,   -0.00426,   -0.01171,   -0.02246,   +0.05029,   +1.01855,  -15.38965,  -29.87403,  +36.84258,   +0.00000,   +0.00000;
3948159456l,   -0.00958,   -0.01064,   -0.00639,   -0.02539,   +0.06445,   +1.01758,  -15.38965,  -29.87403,  +36.84258,   +0.00000,   +0.00000;
3948162499l,   -0.00958,   -0.00851,   -0.00851,   -0.02441,   +0.05176,   +1.01611,  -15.38965,  -29.87403,  +36.84258,   +0.00000,   +0.00000;
3948165543l,   -0.01064,   -0.00639,   -0.01277,   -0.02588,   +0.05859,   +1.03223,  -15.38965,  -29.87403,  +36.84258,   +0.00000,   +0.00000;
3948168585l,   -0.01383,   -0.00851,   -0.00958,   -0.01709,   +0.04932,   +1.02734,  -15.38965,  -29.87403,  +36.84258,   +0.00000,   +0.00000;
3948171612l,   -0.01383,   -0.00958,   -0.00639,   -0.02588,   +0.05664,   +1.03076,  -15.38965,  -29.87403,  +36.84258,   +0.00000,   +0.00000;
3948174656l,   -0.00851,   -0.00851,   -0.00851,   -0.02539,   +0.05225,   +1.01514,  -15.38965,  -29.87403,  +36.84258,   +0.00000,   +0.00000;
3948177697l,   -0.00851,   -0.01596,   -0.01383,   -0.02588,   +0.05371,   +1.02148,  -15.38965,  -29.87403,  +36.84258,   +0.00000,   +0.00000;
3948180738l,   -0.01596,   -0.00639,   -0.00745,   -0.01807,   +0.05811,   +1.01074,  -15.38965,  -29.87403,  +36.84258,   +0.00000,   +0.00000;
3948183781l,   -0.01809,   -0.00745,   -0.00532,   -0.02881,   +0.05518,   +1.02051,  -15.38965,  -29.87403,  +36.84258,   +0.00000,   +0.00000;
3948186824l,   -0.01383,   -0.00639,   -0.00851,   -0.01904,   +0.05957,   +1.01367,  -15.38965,  -29.87403,  +36.84258,   +0.00000,   +0.00000;
3948189867l,   -0.01383,   -0.00745,   -0.01171,   -0.02979,   +0.06055,   +1.02881,  -15.38965,  -29.87403,  +36.84258,   +0.00000,   +0.00000;
3948196077l,   +0.00183,   -0.00499,   -0.00282,   -0.01758,   +0.05078,   +1.02246,  -15.38965,  -29.87403,  +36.84258,   +0.00000,   +0.00000;
3948198624l,   -0.00668,   +0.00246,   +0.00251,   -0.02393,   +0.06055,   +1.01514,  -15.38965,  -29.87403,  +36.84258,   +0.00000,   +0.00000;
3948201185l,   -0.00243,   -0.00393,   -0.00282,   -0.02295,   +0.07324,   +1.01855,  -15.38965,  -29.87403,  +36.84258,   +0.00000,   +0.00000;
3948203747l,   -0.00030,   +0.00139,   -0.00388,   -0.02246,   +0.05273,   +1.02393,  -15.38965,  -29.87403,  +36.84258,   +0.00000,   +0.00000;
3948206308l,   -0.00243,   +0.00139,   +0.00357,   -0.02979,   +0.06201,   +1.02246,  -15.38965,  -29.87403,  +36.84258,   +0.00000,   +0.00000;
3948208869l,   +0.00502,   +0.00033,   +0.00144,   -0.02930,   +0.05762,   +1.02002,  -15.38965,  -29.87403,  +36.84258,   +0.00000,   +0.00000;
3948211430l,   +0.00396,   +0.00033,   +0.00038,   -0.02832,   +0.05371,   +1.02051,  -15.38965,  -29.87403,  +36.84258,   +0.00000,   +0.00000;
3948213991l,   -0.00030,   +0.00246,   +0.00144,   -0.02686,   +0.05859,   +1.01465,  -15.38965,  -29.87403,  +36.84258,   +0.00000,   +0.00000;
3948216554l,   -0.00349,   +0.00458,   +0.00570,   -0.02979,   +0.06201,   +1.01660,  -15.38965,  -29.87403,  +36.84258,   +0.00000,   +0.00000;
3948219114l,   -0.00136,   +0.00458,   -0.00069,   -0.02783,   +0.04834,   +1.01758,  -15.38965,  -29.87403,  +36.84258,   +0.00000,   +0.00000;
3948221675l,   -0.00136,   -0.00180,   +0.00357,   -0.02148,   +0.06348,   +1.02393,  -15.38965,  -29.87403,  +36.84258,   +0.00000,   +0.00000;
3948224236l,   +0.00183,   -0.00074,   +0.00144,   -0.01855,   +0.04785,   +1.01855,  -15.38965,  -29.87403,  +36.84258,   +0.00000,   +0.00000;
3948226796l,   +0.00077,   +0.00352,   -0.00175,   -0.02588,   +0.05322,   +1.02539,  -15.38965,  -29.87403,  +36.84258,   +0.00000,   +0.00000;
3948229357l,   +0.00183,   -0.00180,   +0.00251,   -0.02246,   +0.04688,   +1.01953,  -15.38965,  -29.87403,  +36.84258,   +0.00000,   +0.00000;
3948231954l,   +0.00077,   +0.00139,   -0.00069,   -0.01758,   +0.05859,   +1.03125,  -15.38965,  -29.87403,  +36.84258,   +0.00000,   +0.00000;
3948234481l,   +0.00077,   +0.00565,   +0.00144,   -0.01514,   +0.06201,   +1.02490,  -15.38965,  -29.87403,  +36.84258,   +0.00000,   +0.00000;
3948237041l,   -0.00349,   +0.00033,   +0.00038,   -0.02148,   +0.04980,   +1.02393,  -15.38965,  -29.87403,  +36.84258,   +0.00000,   +0.00000;
3948239602l,   -0.00030,   -0.00286,   -0.00282,   -0.02441,   +0.05371,   +1.01758,  -15.38965,  -29.87403,  +36.84258,   +0.00000,   +0.00000;
3948242165l,   -0.00455,   +0.00033,   -0.00069,   -0.02295,   +0.05420,   +1.01807,  -15.38965,  -29.87403,  +36.84258,   +0.00000,   +0.00000;
3948244723l,   +0.00502,   +0.00139,   +0.00251,   -0.02686,   +0.05176,   +1.03271,  -15.38965,  -29.87403,  +36.84258,   +0.00000,   +0.00000;
3948247292l,   -0.00349,   -0.00074,   +0.00251,   -0.02490,   +0.04639,   +1.00879,  -15.38965,  -29.87403,  +36.84258,   +0.00000,   +0.00000;
3948249846l,   +0.00289,   -0.00180,   -0.00388,   -0.02881,   +0.05176,   +1.02734,  -15.38965,  -29.87403,  +36.84258,   +0.00000,   +0.00000;
3948252407l,   -0.00136,   -0.00286,   +0.00463,   -0.01807,   +0.05273,   +1.02783,  -15.38965,  -29.87403,  +36.84258,   +0.00000,   +0.00000;
3948254969l,   -0.00349,   +0.00352,   -0.00069,   -0.02686,   +0.05664,   +1.02979,  -15.38965,  -29.87403,  +36.84258,   +0.00000,   +0.00000;
3948257529l,   -0.00030,   +0.00033,   -0.00282,   -0.02246,   +0.06250,   +1.02100,  -15.38965,  -29.87403,  +36.84258,   +0.00000,   +0.00000;
3948260090l,   -0.00349,   -0.00074,   +0.00357,   -0.02051,   +0.05322,   +1.02686,  -15.38965,  -29.87403,  +36.84258,   +0.00000,   +0.00000;
3948262651l,   +0.00077,   -0.00180,   +0.00144,   -0.02588,   +0.05518,   +1.02490,  -15.38965,  -29.87403,  +36.84258,   +0.00000,   +0.00000;
3948265211l,   -0.00136,   -0.00180,   +0.00038,   -0.02539,   +0.05127,   +1.02832,  -15.38965,  -29.87403,  +36.84258,   +0.00000,   +0.00000;
3948267773l,   -0.00136,   +0.00246,   -0.00707,   -0.02344,   +0.04932,   +1.02637,  -15.38965,  -29.87403,  +36.84258,   +0.00000,   +0.00000;
3948270333l,   +0.00183,   -0.00286,   -0.00175,   -0.02588,   +0.05371,   +1.02686,  -15.38965,  -29.87403,  +36.84258,   +0.00000,   +0.00000;
3948272896l,   +0.00077,   +0.00033,   -0.00601,   -0.03223,   +0.05762,   +1.04199,  -15.38965,  -29.87403,  +36.84258,   +0.00000,   +0.00000;
3948275455l,   -0.00030,   -0.00074,   -0.00388,   -0.02588,   +0.05225,   +1.02197,  -15.38965,  -29.87403,  +36.84258,   +0.00000,   +0.00000;
3948278017l,   -0.00349,   -0.00286,   -0.00175,   -0.01855,   +0.05811,   +1.02783,  -15.38965,  -29.87403,  +36.84258,   +0.00000,   +0.00000;
3948280577l,   +0.00289,   +0.00458,   +0.00357,   -0.03613,   +0.05957,   +1.01953,  -15.38965,  -29.87403,  +36.84258,   +0.00000,   +0.00000;
3948283139l,   -0.00030,   -0.00180,   -0.00175,   -0.03125,   +0.05664,   +1.03125,  -15.38965,  -29.87403,  +36.84258,   +0.00000,   +0.00000;
3948285698l,   -0.00030,   +0.00033,   +0.00038,   -0.01660,   +0.05664,   +1.02539,  -15.38965,  -29.87403,  +36.84258,   +0.00000,   +0.00000;
3948288262l,   +0.00077,   +0.00458,   +0.00038,   -0.01318,   +0.05615,   +1.01123,  -15.38965,  -29.87403,  +36.84258,   +0.00000,   +0.00000;
3948290823l,   +0.00289,   -0.00180,   +0.00570,   -0.02197,   +0.05273,   +1.01904,  -15.38965,  -29.87403,  +36.84258,   +0.00000,   +0.00000;
3948293383l,   -0.00562,   +0.00033,   -0.00069,   -0.02588,   +0.06299,   +1.02588,  -15.38965,  -29.87403,  +36.84258,   +0.00000,   +0.00000;
3948295944l,   +0.00183,   +0.00033,   +0.00251,   -0.02002,   +0.05859,   +1.01465,  -15.38965,  -29.87403,  +36.84258,   +0.00000,   +0.00000;
3948298513l,   +0.00077,   -0.00074,   +0.00144,   -0.01904,   +0.05225,   +1.00830,  -15.38965,  -29.87403,  +36.84258,   +0.00000,   +0.00000;
3948301068l,   -0.00349,   +0.00246,   -0.00069,   -0.01904,   +0.05664,   +1.02686,  -15.38965,  -29.87403,  +36.84258,   +0.00000,   +0.00000;
3948303630l,   +0.00183,   -0.00286,   -0.00069,   -0.02197,   +0.05371,   +1.01318,  -15.38965,  -29.87403,  +36.84258,   +0.00000,   +0.00000;
3948306191l,   -0.00136,   -0.00074,   -0.00069,   -0.02393,   +0.04688,   +1.02148,  -15.38965,  -29.87403,  +36.84258,   +0.00000,   +0.00000;
3948308751l,   -0.00136,   +0.00139,   +0.00357,   -0.02881,   +0.05566,   +1.02734,  -15.38965,  -29.87403,  +36.84258,   +0.00000,   +0.00000;
3948311311l,   -0.00136,   -0.00712,   -0.00069,   -0.01904,   +0.05322,   +1.02490,  -15.38965,  -29.87403,  +36.84258,   +0.00000,   +0.00000;
3948313873l,   -0.00136,   -0.00074,   +0.00144,   -0.03613,   +0.05713,   +1.02979,  -15.38965,  -29.87403,  +36.84258,   +0.00000,   +0.00000;
3948316433l,   +0.00183,   +0.00033,   +0.00038,   -0.01562,   +0.05322,   +1.02979,  -15.38965,  -29.87403,  +36.84258,   +0.00000,   +0.00000;
3948318995l,   -0.00455,   -0.00180,   -0.00069,   -0.03027,   +0.04736,   +1.02246,  -15.38965,  -29.87403,  +36.84258,   +0.00000,   +0.00000;
3948321556l,   -0.00030,   -0.00286,   -0.00069,   -0.02100,   +0.05566,   +1.02881,  -15.38965,  -29.87403,  +36.84258,   +0.00000,   +0.00000;
3948324149l,   -0.00030,   +0.00139,   +0.00038,   -0.01660,   +0.05371,   +1.03076,  -15.38965,  -29.87403,  +36.84258,   +0.00000,   +0.00000;
3948326708l,   -0.00349,   -0.00819,   -0.00069,   -0.02393,   +0.05273,   +1.03467,  -15.38965,  -29.87403,  +36.84258,   +0.00000,   +0.00000;
3948329269l,   +0.00183,   +0.00139,   +0.00038,   -0.03223,   +0.05664,   +1.02783,  -15.38965,  -29.87403,  +36.84258,   +0.00000,   +0.00000;
3948331830l,   -0.00030,   +0.00139,   -0.00069,   -0.02734,   +0.06396,   +1.03125,  -15.38965,  -29.87403,  +36.84258,   +0.00000,   +0.00000;
3948334392l,   +0.00289,   -0.00074,   -0.00282,   -0.02393,   +0.05322,   +1.00928,  -15.38965,  -29.87403,  +36.84258,   +0.00000,   +0.00000;
3948336951l,   +0.00396,   +0.00139,   +0.00038,   -0.02539,   +0.05371,   +1.01172,  -15.38965,  -29.87403,  +36.84258,   +0.00000,   +0.00000;
3948339511l,   -0.00136,   -0.00074,   -0.00388,   -0.02734,   +0.05127,   +1.02051,  -15.38965,  -29.87403,  +36.84258,   +0.00000,   +0.00000;
3948342083l,   +0.00183,   -0.00074,   -0.00282,   -0.02783,   +0.05127,   +1.01904,  -15.38965,  -29.87403,  +36.84258,   +0.00000,   +0.00000;
3948344641l,   +0.00077,   +0.00246,   -0.00175,   -0.03516,   +0.05664,   +1.01416,  -15.38965,  -29.87403,  +36.84258,   +0.00000,   +0.00000;
3948347203l,   +0.00183,   -0.00286,   -0.00388,   -0.02197,   +0.05664,   +1.03125,  -15.38965,  -29.87403,  +36.84258,   +0.00000,   +0.00000;
3948349767l,   -0.00243,   +0.00352,   +0.00144,   -0.02588,   +0.04980,   +1.02637,  -15.38965,  -29.87403,  +36.84258,   +0.00000,   +0.00000;
3948352325l,   -0.00243,   -0.00074,   -0.00494,   -0.01465,   +0.05762,   +1.01611,  -15.38965,  -29.87403,  +36.84258,   +0.00000,   +0.00000;
3948354888l,   +0.00289,   +0.00352,   +0.00251,   -0.02588,   +0.05615,   +1.03711,  -15.38965,  -29.87403,  +36.84258,   +0.00000,   +0.00000;
3948357448l,   -0.00136,   +0.00033,   -0.00282,   -0.02148,   +0.05811,   +1.00977,  -15.38965,  -29.87403,  +36.84258,   +0.00000,   +0.00000;
3948360009l,   -0.00349,   +0.00139,   +0.00038,   -0.01709,   +0.05859,   +1.02539,  -15.38965,  -29.87403,  +36.84258,   +0.00000,   +0.00000;
3948362571l,   -0.00349,   -0.00180,   +0.00144,   -0.01514,   +0.04932,   +1.01953,  -15.38965,  -29.87403,  +36.84258,   +0.00000,   +0.00000;
3948365132l,   -0.00349,   -0.00286,   -0.00282,   -0.03271,   +0.05176,   +1.01074,  -15.38965,  -29.87403,  +36.84258,   +0.00000,   +0.00000;
3948367692l,   -0.00349,   +0.00033,   -0.00069,   -0.02686,   +0.04541,   +1.03613,  -15.38965,  -29.87403,  +36.84258,   +0.00000,   +0.00000;
3948370253l,   +0.00077,   +0.00033,   +0.00357,   -0.03076,   +0.04736,   +1.01514,  -15.38965,  -29.87403,  +36.84258,   +0.00000,   +0.00000;
3948372814l,   -0.00243,   +0.00778,   +0.00144,   -0.01855,   +0.05127,   +1.00781,  -15.38965,  -29.87403,  +36.84258,   +0.00000,   +0.00000;
3948375375l,   -0.00136,   -0.00499,   +0.00251,   -0.02002,   +0.05811,   +1.02441,  -15.38965,  -29.87403,  +36.84258,   +0.00000,   +0.00000;
3948377935l,   -0.00562,   +0.00246,   +0.00251,   -0.03223,   +0.06104,   +1.02490,  -15.38965,  -29.87403,  +36.84258,   +0.00000,   +0.00000;
3948380496l,   -0.00136,   +0.00352,   +0.00357,   -0.02930,   +0.06494,   +1.02783,  -15.38965,  -29.87403,  +36.84258,   +0.00000,   +0.00000;
3948383058l,   -0.00136,   +0.00139,   +0.00038,   -0.02881,   +0.05762,   +1.01514,  -15.38965,  -29.87403,  +36.84258,   +0.00000,   +0.00000;
3948385619l,   +0.00289,   +0.00139,   +0.00251,   -0.02734,   +0.05225,   +1.01709,  -15.38965,  -29.87403,  +36.84258,   +0.00000,   +0.00000;
3948388180l,   -0.00349,   +0.00458,   +0.00038,   -0.01660,   +0.05225,   +1.02100,  -15.38965,  -29.87403,  +36.84258,   +0.00000,   +0.00000;
3948390740l,   +0.00396,   +0.00033,   +0.00357,   -0.02344,   +0.05664,   +1.02637,  -15.38965,  -29.87403,  +36.84258,   +0.00000,   +0.00000;
3948393301l,   +0.00502,   -0.00074,   +0.00570,   -0.02881,   +0.05322,   +1.03320,  -15.38965,  -29.87403,  +36.84258,   +0.00000,   +0.00000;
3948395862l,   -0.00136,   +0.00246,   -0.00175,   -0.02393,   +0.05957,   +1.01074,  -15.38965,  -29.87403,  +36.84258,   +0.00000,   +0.00000;
3948398425l,   -0.00243,   -0.00074,   +0.00144,   -0.03076,   +0.06445,   +1.02979,  -15.38965,  -29.87403,  +36.84258,   +0.00000,   +0.00000;
3948400990l,   +0.00289,   -0.00180,   -0.00175,   -0.02686,   +0.05420,   +1.02002,  -15.38965,  -29.87403,  +36.84258,   +0.00000,   +0.00000;
3948403545l,   +0.00077,   +0.00139,   -0.00069,   -0.03027,   +0.05762,   +1.02539,  -15.38965,  -29.87403,  +36.84258,   +0.00000,   +0.00000;
3948406106l,   -0.00455,   +0.00246,   +0.00038,   -0.02881,   +0.05518,   +1.01758,  -15.38965,  -29.87403,  +36.84258,   +0.00000,   +0.00000;
3948408666l,   +0.00183,   -0.00180,   +0.00144,   -0.02490,   +0.06152,   +1.02441,  -15.75176,  -29.51192,  +36.84258,   +0.00000,   +0.00000;
3948411227l,   -0.00030,   +0.00033,   -0.00175,   -0.01904,   +0.04688,   +1.02734,  -15.75176,  -29.51192,  +36.84258,   +0.00000,   +0.00000;
3948413788l,   -0.00030,   -0.00074,   +0.00144,   -0.01758,   +0.06055,   +1.02832,  -15.75176,  -29.51192,  +36.84258,   +0.00000,   +0.00000;
3948416349l,   -0.00030,   +0.00139,   +0.00038,   -0.02734,   +0.05225,   +1.01758,  -15.75176,  -29.51192,  +36.84258,   +0.00000,   +0.00000;
3948418910l,   -0.00136,   -0.00499,   -0.00069,   -0.01904,   +0.05811,   +1.02100,  -15.75176,  -29.51192,  +36.84258,   +0.00000,   +0.00000;
3948421472l,   +0.00502,   -0.00286,   -0.00069,   -0.02441,   +0.05029,   +1.02686,  -15.75176,  -29.51192,  +36.84258,   +0.00000,   +0.00000;
3948424033l,   -0.00562,   +0.00352,   -0.00069,   -0.02441,   +0.05908,   +1.02881,  -15.75176,  -29.51192,  +36.84258,   +0.00000,   +0.00000;
3948426594l,   -0.00243,   -0.00074,   -0.00069,   -0.02539,   +0.05908,   +1.01758,  -15.75176,  -29.51192,  +36.84258,   +0.00000,   +0.00000;
3948429155l,   +0.00077,   +0.00671,   +0.00463,   -0.02100,   +0.05127,   +1.02441,  -15.75176,  -29.51192,  +36.84258,   +0.00000,   +0.00000;
3948431738l,   -0.00243,   -0.00393,   +0.00144,   -0.01904,   +0.05615,   +1.02734,  -15.75176,  -29.51192,  +36.84258,   +0.00000,   +0.00000;
3948434280l,   -0.00349,   -0.00074,   -0.00069,   -0.02441,   +0.05420,   +1.02100,  -15.75176,  -29.51192,  +36.84258,   +0.00000,   +0.00000;
3948436839l,   +0.00502,   -0.00393,   -0.00069,   -0.02246,   +0.06250,   +1.01123,  -15.75176,  -29.51192,  +36.84258,   +0.00000,   +0.00000;
3948439399l,   +0.00183,   +0.00139,   +0.00357,   -0.02441,   +0.05566,   +1.02295,  -15.75176,  -29.51192,  +36.84258,   +0.00000,   +0.00000;
3948441999l,   -0.00136,   +0.00033,   -0.00175,   -0.02588,   +0.05713,   +1.02197,  -15.75176,  -29.51192,  +36.84258,   +0.00000,   +0.00000;
3948444521l,   +0.00183,   -0.00286,   -0.00175,   -0.03027,   +0.04395,   +1.03613,  -15.75176,  -29.51192,  +36.84258,   +0.00000,   +0.00000;
3948447084l,   +0.00183,   +0.00139,   -0.00494,   -0.03516,   +0.05078,   +1.02246,  -15.75176,  -29.51192,  +36.84258,   +0.00000,   +0.00000;
3948449644l,   +0.00183,   +0.00139,   +0.00357,   -0.02783,   +0.04980,   +1.01123,  -15.75176,  -29.51192,  +36.84258,   +0.00000,   +0.00000;
3948452209l,   +0.00396,   -0.00180,   +0.00038,   -0.01172,   +0.05371,   +1.03662,  -15.75176,  -29.51192,  +36.84258,   +0.00000,   +0.00000;
3948454763l,   +0.00077,   +0.00352,   -0.00175,   -0.02100,   +0.05957,   +1.02002,  -15.75176,  -29.51192,  +36.84258,   +0.00000,   +0.00000;
3948457325l,   -0.00030,   +0.00033,   -0.00175,   -0.02246,   +0.06543,   +1.02441,  -15.75176,  -29.51192,  +36.84258,   +0.00000,   +0.00000;
3948459888l,   +0.00183,   -0.00286,   -0.00175,   -0.02490,   +0.05420,   +1.01123,  -15.75176,  -29.51192,  +36.84258,   +0.00000,   +0.00000;
3948462449l,   -0.00243,   +0.00139,   -0.00175,   -0.01855,   +0.05078,   +1.02002,  -15.75176,  -29.51192,  +36.84258,   +0.00000,   +0.00000;
3948465009l,   -0.00136,   -0.00074,   +0.00251,   -0.02100,   +0.06055,   +1.02979,  -15.75176,  -29.51192,  +36.84258,   +0.00000,   +0.00000;
3948467569l,   -0.00030,   +0.00352,   -0.00388,   -0.01904,   +0.05615,   +1.02051,  -15.75176,  -29.51192,  +36.84258,   +0.00000,   +0.00000;
3948470130l,   -0.00243,   +0.00033,   -0.00069,   -0.02832,   +0.04834,   +1.02002,  -15.75176,  -29.51192,  +36.84258,   +0.00000,   +0.00000;
3948472689l,   -0.00030,   -0.00180,   +0.00144,   -0.02490,   +0.05322,   +1.01074,  -15.75176,  -29.51192,  +36.84258,   +0.00000,   +0.00000;
3948475252l,   -0.00030,   -0.00499,   -0.00175,   -0.02881,   +0.05127,   +1.02588,  -15.75176,  -29.51192,  +36.84258,   +0.00000,   +0.00000;
3948477811l,   -0.00243,   -0.00499,   +0.00144,   -0.01904,   +0.05957,   +1.02930,  -15.75176,  -29.51192,  +36.84258,   +0.00000,   +0.00000;
3948480372l,   -0.00455,   -0.00074,   +0.00463,   -0.02393,   +0.05127,   +1.01514,  -15.75176,  -29.51192,  +36.84258,   +0.00000,   +0.00000;
3948482935l,   -0.00562,   -0.00286,   -0.00282,   -0.02832,   +0.05811,   +1.01611,  -15.75176,  -29.51192,  +36.84258,   +0.00000,   +0.00000;
3948485494l,   +0.00396,   +0.00246,   +0.00357,   -0.02881,   +0.05127,   +1.02539,  -15.75176,  -29.51192,  +36.84258,   +0.00000,   +0.00000;
3948488057l,   -0.00243,   -0.00074,   -0.00282,   -0.02979,   +0.05713,   +1.02246,  -15.75176,  -29.51192,  +36.84258,   +0.00000,   +0.00000;
3948490616l,   +0.00077,   +0.00352,   -0.00175,   -0.02490,   +0.06641,   +1.01855,  -15.75176,  -29.51192,  +36.84258,   +0.00000,   +0.00000;
3948493179l,   -0.00562,   +0.00139,   +0.00038,   -0.02930,   +0.04834,   +1.01953,  -15.75176,  -29.51192,  +36.84258,   +0.00000,   +0.00000;
3948495739l,   +0.00183,   -0.00286,   -0.00282,   -0.02197,   +0.04932,   +1.02979,  -15.75176,  -29.51192,  +36.84258,   +0.00000,   +0.00000;
3948498299l,   -0.00136,   +0.00139,   -0.00175,   -0.02686,   +0.05762,   +1.01807,  -15.75176,  -29.51192,  +36.84258,   +0.00000,   +0.00000;
3948500859l,   +0.00183,   -0.00180,   +0.00144,   -0.02344,   +0.05957,   +1.00781,  -15.75176,  -29.51192,  +36.84258,   +0.00000,   +0.00000;
3948503443l,   +0.00609,   -0.00286,   -0.00494,   -0.02441,   +0.05664,   +1.01660,  -15.75176,  -29.51192,  +36.84258,   +0.00000,   +0.00000;
3948505999l,   -0.00136,   -0.00074,   +0.00357,   -0.01611,   +0.05176,   +1.02197,  -15.75176,  -29.51192,  +36.84258,   +0.00000,   +0.00000;
3948508547l,   +0.00183,   -0.00180,   -0.00175,   -0.02246,   +0.05713,   +1.03125,  -15.75176,  -29.51192,  +36.84258,   +0.00000,   +0.00000;
3948511107l,   +0.00289,   +0.00033,   -0.00282,   -0.03271,   +0.05225,   +1.01953,  -15.75176,  -29.51192,  +36.84258,   +0.00000,   +0.00000;
3948513667l,   -0.00243,   +0.00458,   +0.00357,   -0.01904,   +0.05078,   +1.02441,  -15.75176,  -29.51192,  +36.84258,   +0.00000,   +0.00000;
3948516234l,   +0.00715,   +0.00033,   -0.00282,   -0.02588,   +0.05566,   +1.01025,  -15.75176,  -29.51192,  +36.84258,   +0.00000,   +0.00000;
3948518802l,   +0.00289,   -0.00286,   +0.00144,   -0.02490,   +0.05713,   +1.02393,  -15.75176,  -29.51192,  +36.84258,   +0.00000,   +0.00000;
3948521371l,   +0.00077,   -0.00074,   -0.00282,   -0.02441,   +0.04736,   +1.01025,  -15.75176,  -29.51192,  +36.84258,   +0.00000,   +0.00000;
3948523914l,   -0.00030,   +0.00565,   -0.00069,   -0.02588,   +0.05029,   +1.03809,  -15.75176,  -29.51192,  +36.84258,   +0.00000,   +0.00000;
3948526478l,   +0.00183,   +0.00139,   +0.00038,   -0.02832,   +0.05127,   +1.01953,  -15.75176,  -29.51192,  +36.84258,   +0.00000,   +0.00000;
3948529049l,   -0.00455,   -0.00074,   +0.00144,   -0.01904,   +0.05957,   +1.02051,  -15.75176,  -29.51192,  +36.84258,   +0.00000,   +0.00000;
3948531629l,   +0.00077,   +0.00458,   -0.00069,   -0.02881,   +0.05127,   +1.01807,  -15.75176,  -29.51192,  +36.84258,   +0.00000,   +0.00000;
3948534164l,   -0.00349,   -0.00180,   +0.00570,   -0.02441,   +0.05664,   +1.02637,  -14.84649,  -29.33086,  +34.92188,   +0.00000,   +0.00000;
3948536740l,   -0.00243,   +0.00139,   +0.00251,   -0.02148,   +0.05127,   +1.01904,  -14.84649,  -29.33086,  +34.92188,   +0.00000,   +0.00000;
3948539282l,   -0.00349,   +0.00139,   +0.00144,   -0.02100,   +0.05371,   +1.02441,  -14.84649,  -29.33086,  +34.92188,   +0.00000,   +0.00000;
3948541849l,   -0.00243,   -0.00180,   +0.00144,   -0.03174,   +0.06104,   +1.02832,  -14.84649,  -29.33086,  +34.92188,   +0.00000,   +0.00000;
3948544419l,   -0.00136,   +0.00139,   -0.00069,   -0.01562,   +0.05811,   +1.01416,  -14.84649,  -29.33086,  +34.92188,   +0.00000,   +0.00000;
3948546971l,   -0.00455,   +0.00033,   +0.00357,   -0.02100,   +0.05322,   +1.03467,  -14.84649,  -29.33086,  +34.92188,   +0.00000,   +0.00000;
3948549526l,   +0.00183,   -0.00074,   +0.00251,   -0.02002,   +0.05908,   +1.03174,  -14.84649,  -29.33086,  +34.92188,   +0.00000,   +0.00000;
3948552085l,   -0.00243,   +0.00033,   +0.00570,   -0.02686,   +0.05908,   +1.02441,  -14.84649,  -29.33086,  +34.92188,   +0.00000,   +0.00000;
3948554647l,   +0.00183,   +0.00352,   +0.00144,   -0.02881,   +0.05322,   +1.01953,  -14.84649,  -29.33086,  +34.92188,   +0.00000,   +0.00000;
3948557214l,   +0.00183,   -0.00286,   +0.00144,   -0.02539,   +0.05322,   +1.02441,  -14.84649,  -29.33086,  +34.92188,   +0.00000,   +0.00000;
3948559765l,   +0.00183,   +0.00352,   +0.00038,   -0.03076,   +0.05518,   +1.02295,  -14.84649,  -29.33086,  +34.92188,   +0.00000,   +0.00000;
3948562328l,   -0.00030,   +0.00033,   -0.00069,   -0.01758,   +0.05957,   +1.02148,  -14.84649,  -29.33086,  +34.92188,   +0.00000,   +0.00000;
3948564903l,   +0.00289,   -0.00286,   +0.00038,   -0.02148,   +0.05566,   +1.02246,  -14.84649,  -29.33086,  +34.92188,   +0.00000,   +0.00000;
3948567472l,   +0.00289,   +0.00033,   +0.00038,   -0.02295,   +0.05957,   +1.02393,  -14.84649,  -29.33086,  +34.92188,   +0.00000,   +0.00000;
3948570013l,   +0.00077,   -0.00286,   +0.00463,   -0.01855,   +0.06201,   +1.02637,  -14.84649,  -29.33086,  +34.92188,   +0.00000,   +0.00000;
3948572581l,   +0.00077,   +0.00246,   -0.00175,   -0.01709,   +0.05518,   +1.02881,  -14.84649,  -29.33086,  +34.92188,   +0.00000,   +0.00000;
3948575140l,   +0.00077,   +0.00246,   +0.00251,   -0.02393,   +0.05908,   +1.01904,  -14.84649,  -29.33086,  +34.92188,   +0.00000,   +0.00000;
3948577708l,   -0.00030,   -0.00074,   -0.00282,   -0.03467,   +0.05420,   +1.01465,  -14.84649,  -29.33086,  +34.92188,   +0.00000,   +0.00000;
3948580278l,   +0.00609,   -0.00393,   +0.00038,   -0.01758,   +0.05371,   +1.02490,  -14.84649,  -29.33086,  +34.92188,   +0.00000,   +0.00000;
3948582820l,   -0.00349,   +0.00033,   +0.00251,   -0.02930,   +0.05371,   +1.01855,  -14.84649,  -29.33086,  +34.92188,   +0.00000,   +0.00000;
3948585385l,   +0.00396,   +0.00139,   -0.00175,   -0.02979,   +0.04932,   +1.01416,  -14.84649,  -29.33086,  +34.92188,   +0.00000,   +0.00000;
3948587955l,   -0.00243,   +0.00033,   -0.00388,   -0.02686,   +0.05664,   +1.01416,  -14.84649,  -29.33086,  +34.92188,   +0.00000,   +0.00000;
3948590506l,   -0.00668,   +0.00352,   +0.00038,   -0.02246,   +0.05518,   +1.02441,  -14.84649,  -29.33086,  +34.92188,   +0.00000,   +0.00000;
3948593072l,   -0.00243,   -0.00074,   +0.00038,   -0.02393,   +0.05225,   +1.02881,  -14.84649,  -29.33086,  +34.92188,   +0.00000,   +0.00000;
3948595622l,   -0.00136,   -0.00286,   -0.00175,   -0.03027,   +0.06152,   +1.01758,  -14.84649,  -29.33086,  +34.92188,   +0.00000,   +0.00000;
3948598182l,   -0.00136,   +0.00033,   +0.00144,   -0.02002,   +0.05859,   +1.01660,  -14.84649,  -29.33086,  +34.92188,   +0.00000,   +0.00000;
3948600751l,   -0.00562,   -0.00180,   -0.00069,   -0.02393,   +0.05176,   +1.01660,  -14.84649,  -29.33086,  +34.92188,   +0.00000,   +0.00000;
3948603321l,   -0.00455,   -0.00180,   -0.00069,   -0.02393,   +0.05713,   +1.02686,  -14.84649,  -29.33086,  +34.92188,   +0.00000,   +0.00000;
3948605874l,   -0.00243,   -0.00180,   +0.00251,   -0.02881,   +0.05615,   +1.01904,  -14.84649,  -29.33086,  +34.92188,   +0.00000,   +0.00000;
3948608430l,   -0.00668,   +0.00139,   -0.00069,   -0.01807,   +0.04834,   +1.02100,  -14.84649,  -29.33086,  +34.92188,   +0.00000,   +0.00000;
3948610997l,   -0.00030,   +0.00033,   -0.00388,   -0.01807,   +0.05957,   +1.02637,  -14.84649,  -29.33086,  +34.92188,   +0.00000,   +0.00000;
3948613567l,   +0.00077,   -0.00074,   +0.00144,   -0.02490,   +0.05566,   +1.02686,  -14.84649,  -29.33086,  +34.92188,   +0.00000,   +0.00000;
3948616132l,   +0.00396,   +0.00246,   +0.00038,   -0.02393,   +0.05518,   +1.02100,  -14.84649,  -29.33086,  +34.92188,   +0.00000,   +0.00000;
3948618684l,   +0.00077,   +0.00033,   +0.00038,   -0.02148,   +0.05127,   +1.02490,  -14.84649,  -29.33086,  +34.92188,   +0.00000,   +0.00000;
3948621239l,   +0.00502,   +0.00139,   -0.00069,   -0.02686,   +0.05859,   +1.01562,  -14.84649,  -29.33086,  +34.92188,   +0.00000,   +0.00000;
3948623806l,   +0.00077,   -0.00393,   +0.00038,   -0.02588,   +0.05371,   +1.01562,  -14.84649,  -29.33086,  +34.92188,   +0.00000,   +0.00000;
3948626375l,   +0.00077,   +0.00246,   +0.00144,   -0.01807,   +0.04980,   +1.02490,  -14.84649,  -29.33086,  +34.92188,   +0.00000,   +0.00000;
3948628944l,   +0.00183,   +0.00246,   -0.00175,   -0.02295,   +0.04443,   +1.00781,  -14.84649,  -29.33086,  +34.92188,   +0.00000,   +0.00000;
3948631485l,   -0.00243,   +0.00246,   +0.00144,   -0.02539,   +0.05176,   +1.02588,  -14.84649,  -29.33086,  +34.92188,   +0.00000,   +0.00000;
3948634062l,   +0.00077,   -0.00286,   -0.00282,   -0.02734,   +0.05664,   +1.02734,  -14.84649,  -29.33086,  +34.92188,   +0.00000,   +0.00000;
3948636604l,   +0.00077,   -0.00180,   +0.00038,   -0.02295,   +0.05029,   +1.01758,  -14.84649,  -29.33086,  +34.92188,   +0.00000,   +0.00000;
3948639171l,   +0.00289,   -0.00286,   +0.00038,   -0.02344,   +0.06543,   +1.02930,  -14.84649,  -29.33086,  +34.92188,   +0.00000,   +0.00000;
3948641765l,   +0.00077,   +0.00352,   -0.00282,   -0.01514,   +0.06250,   +1.02637,  -14.84649,  -29.33086,  +34.92188,   +0.00000,   +0.00000;
3948644312l,   -0.00455,   +0.00033,   +0.00144,   -0.03027,   +0.05420,   +1.03467,  -14.84649,  -29.33086,  +34.92188,   +0.00000,   +0.00000;
3948646852l,   +0.00077,   +0.00246,   -0.00282,   -0.02295,   +0.05518,   +1.02734,  -14.84649,  -29.33086,  +34.92188,   +0.00000,   +0.00000;
3948649411l,   -0.00030,   -0.00180,   -0.00282,   -0.02100,   +0.05371,   +1.01807,  -14.84649,  -29.33086,  +34.92188,   +0.00000,   +0.00000;
3948652028l,   -0.00136,   -0.00286,   +0.00357,   -0.03564,   +0.05957,   +1.01953,  -14.84649,  -29.33086,  +34.92188,   +0.00000,   +0.00000;
3948654550l,   -0.00030,   +0.00139,   -0.00069,   -0.02881,   +0.05273,   +1.01562,  -14.84649,  -29.33086,  +34.92188,   +0.00000,   +0.00000;
3948657124l,   -0.00243,   -0.00499,   -0.00069,   -0.02197,   +0.04834,   +1.03467,  -14.84649,  -29.33086,  +34.92188,   +0.00000,   +0.00000;
3948659662l,   +0.00183,   -0.00180,   -0.00388,   -0.01660,   +0.05273,   +1.02930,  -14.84649,  -29.33086,  +34.92188,   +0.00000,   +0.00000;
3948662230l,   -0.00455,   +0.00139,   +0.00357,   -0.02393,   +0.05322,   +1.02979,  -14.84649,  -29.33086,  +34.92188,   +0.00000,   +0.00000;
3948664799l,   -0.00455,   -0.00393,   -0.00175,   -0.02197,   +0.05322,   +1.02539,  -14.84649,  -29.33086,  +34.92188,   +0.00000,   +0.00000;
3948667349l,   +0.00289,   -0.00393,   +0.00038,   -0.02441,   +0.05859,   +1.02979,  -14.84649,  -29.33086,  +34.92188,   +0.00000,   +0.00000;
3948669908l,   -0.00562,   +0.00671,   +0.00463,   -0.02148,   +0.05518,   +1.01074,  -14.84649,  -29.33086,  +34.92188,   +0.00000,   +0.00000;
3948672474l,   -0.00455,   -0.00074,   -0.00175,   -0.01758,   +0.05420,   +1.02881,  -14.84649,  -29.33086,  +34.92188,   +0.00000,   +0.00000;
3948675033l,   -0.00243,   +0.00033,   +0.00144,   -0.02539,   +0.04834,   +1.03027,  -14.84649,  -29.33086,  +34.92188,   +0.00000,   +0.00000;
3948677601l,   +0.00396,   -0.00074,   -0.00282,   -0.01904,   +0.06201,   +1.02637,  -14.84649,  -29.33086,  +34.92188,   +0.00000,   +0.00000;
3948680170l,   -0.00030,   -0.00286,   +0.00038,   -0.02441,   +0.05713,   +1.02295,  -14.84649,  -29.33086,  +34.92188,   +0.00000,   +0.00000;
3948682709l,   +0.00289,   -0.00074,   +0.00251,   -0.02686,   +0.05859,   +1.03223,  -14.84649,  -29.33086,  +34.92188,   +0.00000,   +0.00000;
3948685268l,   +0.00077,   +0.00033,   +0.00038,   -0.02490,   +0.04834,   +1.02490,  -14.84649,  -29.33086,  +34.92188,   +0.00000,   +0.00000;
3948687836l,   +0.00077,   +0.00033,   +0.00357,   -0.02734,   +0.05762,   +1.01758,  -14.84649,  -29.33086,  +34.92188,   +0.00000,   +0.00000;
3948690407l,   -0.00243,   +0.00246,   +0.00251,   -0.01660,   +0.05225,   +1.02393,  -14.84649,  -29.33086,  +34.92188,   +0.00000,   +0.00000;
3948692974l,   +0.00183,   +0.00246,   +0.00144,   -0.03027,   +0.05322,   +1.00586,  -14.84649,  -29.33086,  +34.92188,   +0.00000,   +0.00000;
3948695525l,   -0.00136,   +0.00139,   +0.00357,   -0.02441,   +0.05664,   +1.01709,  -14.84649,  -29.33086,  +34.92188,   +0.00000,   +0.00000;
3948698075l,   -0.00030,   -0.00286,   +0.00251,   -0.02295,   +0.05420,   +1.03857,  -14.84649,  -29.33086,  +34.92188,   +0.00000,   +0.00000;
3948700643l,   +0.00077,   +0.00139,   -0.00282,   -0.02734,   +0.05615,   +1.01953,  -14.84649,  -29.33086,  +34.92188,   +0.00000,   +0.00000;
3948703216l,   -0.00349,   +0.00458,   +0.00038,   -0.01904,   +0.05664,   +1.02197,  -14.84649,  -29.33086,  +34.92188,   +0.00000,   +0.00000;
3948705766l,   +0.00183,   +0.00033,   +0.00038,   -0.02734,   +0.04932,   +1.01855,  -14.84649,  -29.33086,  +34.92188,   +0.00000,   +0.00000;
3948708327l,   -0.00030,   -0.00606,   +0.00038,   -0.02295,   +0.05420,   +1.03076,  -14.84649,  -29.33086,  +34.92188,   +0.00000,   +0.00000;
3948710891l,   +0.00077,   -0.00180,   +0.00038,   -0.02930,   +0.05664,   +1.02295,  -14.84649,  -29.33086,  +34.92188,   +0.00000,   +0.00000;
3948713462l,   -0.00243,   +0.00139,   -0.00175,   -0.03027,   +0.05322,   +1.02197,  -14.84649,  -29.33086,  +34.92188,   +0.00000,   +0.00000;
3948716026l,   +0.00183,   +0.00033,   +0.00251,   -0.02783,   +0.05518,   +1.02295,  -14.84649,  -29.33086,  +34.92188,   +0.00000,   +0.00000;
3948718577l,   -0.00243,   -0.00286,   +0.00251,   -0.02783,   +0.05957,   +1.02930,  -14.84649,  -29.33086,  +34.92188,   +0.00000,   +0.00000;
3948721136l,   -0.00136,   +0.00246,   -0.00282,   -0.01758,   +0.05322,   +1.02051,  -14.84649,  -29.33086,  +34.92188,   +0.00000,   +0.00000;
3948723704l,   -0.00030,   +0.00033,   +0.00038,   -0.02246,   +0.05273,   +1.01709,  -14.84649,  -29.33086,  +34.92188,   +0.00000,   +0.00000;
3948726271l,   -0.00030,   +0.00033,   -0.00175,   -0.02441,   +0.05859,   +1.02197,  -14.84649,  -29.33086,  +34.92188,   +0.00000,   +0.00000;
3948728822l,   +0.00289,   -0.00286,   +0.00038,   -0.01855,   +0.05225,   +1.02930,  -14.84649,  -29.33086,  +34.92188,   +0.00000,   +0.00000;
3948731379l,   -0.00349,   -0.00074,   -0.00069,   -0.03076,   +0.05078,   +1.02051,  -14.84649,  -29.33086,  +34.92188,   +0.00000,   +0.00000;
3948733960l,   -0.00030,   +0.00033,   -0.00388,   -0.02881,   +0.05273,   +1.02637,  -14.84649,  -29.33086,  +34.92188,   +0.00000,   +0.00000;
3948736500l,   +0.00077,   -0.00286,   +0.00144,   -0.02246,   +0.06348,   +1.01562,  -14.84649,  -29.33086,  +34.92188,   +0.00000,   +0.00000;
3948739066l,   +0.00289,   -0.00606,   +0.00357,   -0.02539,   +0.04443,   +1.02295,  -14.84649,  -29.33086,  +34.92188,   +0.00000,   +0.00000;
3948741615l,   -0.00562,   +0.00458,   +0.00144,   -0.02197,   +0.04590,   +1.01855,  -14.84649,  -29.33086,  +34.92188,   +0.00000,   +0.00000;
3948744213l,   +0.01034,   +0.00033,   -0.00175,   -0.01807,   +0.05566,   +1.02197,  -14.84649,  -29.33086,  +34.92188,   +0.00000,   +0.00000;
3948746763l,   +0.00183,   +0.00246,   +0.00357,   -0.02783,   +0.04980,   +1.03125,  -14.84649,  -29.33086,  +34.92188,   +0.00000,   +0.00000;
3948749330l,   +0.00183,   -0.00180,   +0.00251,   -0.01709,   +0.06445,   +1.01367,  -14.84649,  -29.33086,  +34.92188,   +0.00000,   +0.00000;
3948751897l,   +0.00183,   +0.00458,   -0.00175,   -0.01904,   +0.04639,   +1.02490,  -14.84649,  -29.33086,  +34.92188,   +0.00000,   +0.00000;
3948754438l,   -0.00030,   -0.00286,   +0.00038,   -0.02441,   +0.05664,   +1.02832,  -14.84649,  -29.33086,  +34.92188,   +0.00000,   +0.00000;
3948757042l,   -0.00455,   +0.00246,   +0.00251,   -0.02686,   +0.04346,   +1.01660,  -14.84649,  -29.33086,  +34.92188,   +0.00000,   +0.00000;
3948759561l,   +0.00077,   +0.00033,   +0.00251,   -0.02490,   +0.05518,   +1.02441,  -14.84649,  -29.33086,  +34.92188,   +0.00000,   +0.00000;
3948762120l,   +0.00502,   +0.00139,   -0.00175,   -0.02441,   +0.05566,   +1.02734,  -14.84649,  -29.33086,  +34.92188,   +0.00000,   +0.00000;
3948764693l,   +0.00077,   -0.00180,   +0.00144,   -0.03125,   +0.05664,   +1.02393,  -14.84649,  -29.33086,  +34.92188,   +0.00000,   +0.00000;
3948767248l,   +0.00289,   -0.00074,   +0.00251,   -0.02344,   +0.06152,   +1.01465,  -14.84649,  -29.33086,  +34.92188,   +0.00000,   +0.00000;
3948769795l,   -0.00562,   +0.00033,   +0.00144,   -0.02002,   +0.04980,   +1.01465,  -14.84649,  -29.33086,  +34.92188,   +0.00000,   +0.00000;
3948772357l,   -0.00136,   +0.00033,   +0.00144,   -0.02148,   +0.06689,   +1.01416,  -14.84649,  -29.33086,  +34.92188,   +0.00000,   +0.00000;
3948774914l,   -0.00243,   -0.00499,   +0.00038,   -0.03955,   +0.04541,   +1.00684,  -14.84649,  -29.33086,  +34.92188,   +0.00000,   +0.00000;
3948777481l,   -0.00775,   +0.00139,   +0.00357,   -0.03467,   +0.05713,   +1.02148,  -14.84649,  -29.33086,  +34.92188,   +0.00000,   +0.00000;
3948780052l,   -0.00243,   -0.00074,   -0.00175,   -0.02148,   +0.05811,   +1.01855,  -14.84649,  -29.33086,  +34.92188,   +0.00000,   +0.00000;
3948782568l,   -0.00030,   +0.00033,   +0.00251,   -0.02588,   +0.04639,   +1.01904,  -14.84649,  -29.33086,  +34.92188,   +0.00000,   +0.00000;
3948785128l,   -0.00455,   -0.00393,   -0.00494,   -0.02588,   +0.05713,   +1.02197,  -14.84649,  -29.33086,  +34.92188,   +0.00000,   +0.00000;
3948787695l,   +0.00077,   +0.00139,   -0.00388,   -0.01416,   +0.06152,   +1.00928,  -14.84649,  -29.33086,  +34.92188,   +0.00000,   +0.00000;
3948790266l,   +0.00289,   -0.00499,   +0.00251,   -0.02393,   +0.04688,   +1.02734,  -14.84649,  -29.33086,  +34.92188,   +0.00000,   +0.00000;
3948792829l,   -0.00030,   -0.00393,   -0.00069,   -0.02051,   +0.05957,   +1.02295,  -14.84649,  -29.33086,  +34.92188,   +0.00000,   +0.00000;
3948795386l,   +0.00183,   +0.00352,   -0.00282,   -0.02246,   +0.05664,   +1.02197,  -14.84649,  -29.33086,  +34.92188,   +0.00000,   +0.00000;
3948797946l,   +0.00077,   -0.00606,   -0.00282,   -0.02490,   +0.05371,   +1.02979,  -14.84649,  -29.33086,  +34.92188,   +0.00000,   +0.00000;
3948800513l,   +0.00077,   +0.00565,   +0.00038,   -0.01465,   +0.04785,   +1.02588,  -14.84649,  -29.33086,  +34.92188,   +0.00000,   +0.00000;
3948803085l,   -0.00136,   -0.00393,   +0.00144,   -0.02783,   +0.06250,   +1.01465,  -14.84649,  -29.33086,  +34.92188,   +0.00000,   +0.00000;
3948805641l,   +0.00183,   +0.00033,   +0.00038,   -0.02734,   +0.05762,   +1.01270,  -14.84649,  -29.33086,  +34.92188,   +0.00000,   +0.00000;
3948808191l,   -0.00030,   +0.00458,   +0.00038,   -0.02734,   +0.05566,   +1.02393,  -14.84649,  -29.33086,  +34.92188,   +0.00000,   +0.00000;
3948810762l,   -0.00136,   -0.00180,   +0.00144,   -0.01904,   +0.05225,   +1.02051,  -14.84649,  -29.33086,  +34.92188,   +0.00000,   +0.00000;
3948813329l,   -0.00030,   -0.00606,   -0.00494,   -0.02734,   +0.04980,   +1.02686,  -14.84649,  -29.33086,  +34.92188,   +0.00000,   +0.00000;
3948815895l,   +0.00183,   +0.00246,   -0.00069,   -0.01807,   +0.05273,   +1.02148,  -14.84649,  -29.33086,  +34.92188,   +0.00000,   +0.00000;
3948818447l,   -0.00243,   -0.00393,   +0.00038,   -0.03320,   +0.05908,   +1.03809,  -14.84649,  -29.33086,  +34.92188,   +0.00000,   +0.00000;
3948821004l,   +0.00289,   +0.00246,   -0.00388,   -0.01514,   +0.05762,   +1.02832,  -14.84649,  -29.33086,  +34.92188,   +0.00000,   +0.00000;
3948823570l,   +0.00183,   -0.00393,   +0.00038,   -0.02588,   +0.05225,   +1.02588,  -14.84649,  -29.33086,  +34.92188,   +0.00000,   +0.00000;
3948826141l,   -0.00349,   +0.00033,   +0.00144,   -0.02393,   +0.06641,   +1.02002,  -14.84649,  -29.33086,  +34.92188,   +0.00000,   +0.00000;
3948828691l,   -0.00243,   -0.00180,   +0.00144,   -0.01758,   +0.05518,   +1.02832,  -14.84649,  -29.33086,  +34.92188,   +0.00000,   +0.00000;
3948831251l,   -0.00136,   -0.00286,   -0.00175,   -0.02393,   +0.05518,   +1.01611,  -14.84649,  -29.33086,  +34.92188,   +0.00000,   +0.00000;
3948833830l,   -0.00455,   -0.00180,   +0.00038,   -0.02002,   +0.05029,   +1.02051,  -14.84649,  -29.33086,  +34.92188,   +0.00000,   +0.00000;
3948836369l,   -0.00349,   +0.00246,   +0.00463,   -0.02148,   +0.05615,   +1.01904,  -14.84649,  -29.33086,  +34.92188,   +0.00000,   +0.00000;
3948838938l,   +0.00289,   +0.00139,   -0.00175,   -0.01904,   +0.06396,   +1.03662,  -14.84649,  -29.33086,  +34.92188,   +0.00000,   +0.00000;
3948841505l,   +0.00183,   +0.00033,   -0.00069,   -0.02051,   +0.05420,   +1.00879,  -14.84649,  -29.33086,  +34.92188,   +0.00000,   +0.00000;
3948844075l,   -0.00243,   -0.00393,   +0.00251,   -0.02490,   +0.05273,   +1.01562,  -14.84649,  -29.33086,  +34.92188,   +0.00000,   +0.00000;
3948846614l,   +0.00183,   +0.00139,   -0.00069,   -0.02393,   +0.05664,   +1.01318,  -14.84649,  -29.33086,  +34.92188,   +0.00000,   +0.00000;
3948849182l,   -0.00349,   +0.00033,   +0.00251,   -0.02002,   +0.04932,   +1.01611,  -14.84649,  -29.33086,  +34.92188,   +0.00000,   +0.00000;
3948851745l,   -0.00030,   +0.00352,   -0.00069,   -0.02881,   +0.05811,   +1.02832,  -14.84649,  -29.33086,  +34.92188,   +0.00000,   +0.00000;
3948854335l,   -0.00136,   -0.00286,   +0.00144,   -0.02588,   +0.05518,   +1.01025,  -14.84649,  -29.33086,  +34.92188,   +0.00000,   +0.00000;
3948856886l,   +0.00183,   -0.00180,   +0.00463,   -0.02832,   +0.04834,   +1.01953,  -14.84649,  -29.33086,  +34.92188,   +0.00000,   +0.00000;
3948859468l,   +0.00183,   -0.00074,   -0.00069,   -0.02539,   +0.05322,   +1.01465,  -14.84649,  -29.33086,  +34.92188,   +0.00000,   +0.00000;
3948862048l,   -0.00243,   -0.00286,   -0.00282,   -0.01758,   +0.06299,   +1.03271,  -14.84649,  -29.33086,  +34.92188,   +0.00000,   +0.00000;
3948864575l,   +0.00289,   +0.00033,   +0.00251,   -0.02295,   +0.04053,   +1.03320,  -14.84649,  -29.33086,  +34.92188,   +0.00000,   +0.00000;
3948867143l,   -0.00030,   -0.00286,   -0.00069,   -0.01904,   +0.06299,   +1.02100,  -14.84649,  -29.33086,  +34.92188,   +0.00000,   +0.00000;
3948869696l,   -0.00243,   -0.00074,   +0.00144,   -0.03223,   +0.06201,   +1.01514,  -14.84649,  -29.33086,  +34.92188,   +0.00000,   +0.00000;
3948872255l,   +0.00077,   +0.00246,   -0.00282,   -0.02197,   +0.05664,   +1.01660,  -14.84649,  -29.33086,  +34.92188,   +0.00000,   +0.00000;
3948874834l,   -0.00030,   -0.00286,   -0.00175,   -0.02441,   +0.05518,   +1.00830,  -14.84649,  -29.33086,  +34.92188,   +0.00000,   +0.00000;
3948877370l,   -0.00136,   +0.00246,   +0.00144,   -0.02930,   +0.05713,   +1.01562,  -14.84649,  -29.33086,  +34.92188,   +0.00000,   +0.00000;
3948879938l,   -0.00030,   +0.00033,   +0.00357,   -0.02490,   +0.05762,   +1.02441,  -14.84649,  -29.33086,  +34.92188,   +0.00000,   +0.00000;
3948882509l,   -0.00243,   +0.00139,   +0.00144,   -0.02686,   +0.06396,   +1.00928,  -14.84649,  -29.33086,  +34.92188,   +0.00000,   +0.00000;
3948885060l,   -0.00136,   +0.00139,   +0.00038,   -0.03027,   +0.06152,   +1.02148,  -14.84649,  -29.33086,  +34.92188,   +0.00000,   +0.00000;
3948887617l,   +0.00396,   +0.00246,   -0.00388,   -0.02686,   +0.04590,   +1.02588,  -14.84649,  -29.33086,  +34.92188,   +0.00000,   +0.00000;
3948890182l,   -0.00562,   +0.00033,   -0.00282,   -0.02100,   +0.05029,   +1.02197,  -14.84649,  -29.33086,  +34.92188,   +0.00000,   +0.00000;
3948892754l,   +0.00289,   -0.00180,   -0.00069,   -0.03174,   +0.06299,   +1.02881,  -14.84649,  -29.33086,  +34.92188,   +0.00000,   +0.00000;
3948895318l,   -0.00030,   +0.00139,   -0.00069,   -0.02344,   +0.06299,   +1.01758,  -14.84649,  -29.33086,  +34.92188,   +0.00000,   +0.00000;
3948897888l,   +0.00289,   -0.00074,   -0.00069,   -0.02197,   +0.05371,   +1.02832,  -14.84649,  -29.33086,  +34.92188,   +0.00000,   +0.00000;
3948900427l,   -0.00349,   +0.00246,   -0.00069,   -0.02832,   +0.06055,   +1.01758,  -14.84649,  -29.33086,  +34.92188,   +0.00000,   +0.00000;
3948902995l,   -0.00136,   +0.00033,   +0.00251,   -0.01758,   +0.05029,   +1.01709,  -14.84649,  -29.33086,  +34.92188,   +0.00000,   +0.00000;
3948905563l,   -0.00030,   -0.00286,   +0.00038,   -0.02197,   +0.04980,   +1.02588,  -14.84649,  -29.33086,  +34.92188,   +0.00000,   +0.00000;
3948908133l,   +0.00077,   -0.00180,   -0.00069,   -0.02783,   +0.04980,   +1.02930,  -14.84649,  -29.33086,  +34.92188,   +0.00000,   +0.00000;
3948910672l,   +0.00396,   -0.00606,   +0.00251,   -0.02441,   +0.05566,   +1.02100,  -14.84649,  -29.33086,  +34.92188,   +0.00000,   +0.00000;
3948913244l,   +0.00183,   +0.00458,   -0.00069,   -0.03076,   +0.05176,   +1.02197,  -14.84649,  -29.33086,  +34.92188,   +0.00000,   +0.00000;
3948915799l,   -0.00030,   +0.00033,   +0.00144,   -0.02832,   +0.05615,   +1.02588,  -14.84649,  -29.33086,  +34.92188,   +0.00000,   +0.00000;
3948918367l,   -0.00349,   +0.00246,   +0.00357,   -0.02441,   +0.04736,   +1.02051,  -14.84649,  -29.33086,  +34.92188,   +0.00000,   +0.00000;
3948920920l,   -0.00030,   -0.00180,   -0.00282,   -0.02246,   +0.06250,   +1.01367,  -14.84649,  -29.33086,  +34.92188,   +0.00000,   +0.00000;
3948923477l,   +0.00183,   -0.00074,   -0.00175,   -0.02051,   +0.05713,   +1.03613,  -14.84649,  -29.33086,  +34.92188,   +0.00000,   +0.00000;
3948926044l,   -0.00030,   -0.00286,   -0.00069,   -0.02197,   +0.05615,   +1.03467,  -14.84649,  -29.33086,  +34.92188,   +0.00000,   +0.00000;
3948928613l,   -0.00243,   +0.00033,   -0.00069,   -0.03027,   +0.06299,   +1.01367,  -14.84649,  -29.33086,  +34.92188,   +0.00000,   +0.00000;
3948931163l,   -0.00030,   -0.00286,   +0.00038,   -0.02686,   +0.05322,   +1.02539,  -14.84649,  -29.33086,  +34.92188,   +0.00000,   +0.00000;
3948933726l,   -0.00030,   +0.00352,   +0.00463,   -0.03516,   +0.05420,   +1.01611,  -14.84649,  -29.33086,  +34.92188,   +0.00000,   +0.00000;
3948936305l,   +0.00183,   +0.00246,   -0.00175,   -0.02100,   +0.05811,   +1.01953,  -14.84649,  -29.33086,  +34.92188,   +0.00000,   +0.00000;
3948938845l,   -0.00136,   -0.00393,   -0.00069,   -0.02881,   +0.05811,   +1.02539,  -14.84649,  -29.33086,  +34.92188,   +0.00000,   +0.00000;
3948941406l,   +0.00502,   -0.00180,   +0.00144,   -0.02295,   +0.05176,   +1.02686,  -14.84649,  -29.33086,  +34.92188,   +0.00000,   +0.00000;
3948943984l,   -0.00136,   -0.00074,   +0.00357,   -0.02588,   +0.05664,   +1.01953,  -14.84649,  -29.33086,  +34.92188,   +0.00000,   +0.00000;
3948946534l,   -0.00030,   +0.00246,   +0.00038,   -0.03125,   +0.05566,   +1.02783,  -14.84649,  -29.33086,  +34.92188,   +0.00000,   +0.00000;
3948949091l,   +0.00289,   -0.00499,   -0.00282,   -0.02686,   +0.05713,   +1.01660,  -14.84649,  -29.33086,  +34.92188,   +0.00000,   +0.00000;
3948951658l,   +0.00077,   +0.00671,   +0.00570,   -0.02686,   +0.06104,   +1.01562,  -14.84649,  -29.33086,  +34.92188,   +0.00000,   +0.00000;
3948954221l,   +0.00289,   +0.00033,   -0.00069,   -0.02881,   +0.05371,   +1.02490,  -14.84649,  -29.33086,  +34.92188,   +0.00000,   +0.00000;
3948956788l,   -0.00136,   +0.00139,   +0.00144,   -0.02930,   +0.04688,   +1.02686,  -14.84649,  -29.33086,  +34.92188,   +0.00000,   +0.00000;
3948959355l,   +0.00077,   +0.00033,   -0.00069,   -0.03174,   +0.05908,   +1.01611,  -14.84649,  -29.33086,  +34.92188,   +0.00000,   +0.00000;
3948961896l,   -0.00030,   -0.00180,   -0.00069,   -0.03125,   +0.05615,   +0.99023,  -14.84649,  -29.33086,  +34.92188,   +0.00000,   +0.00000;
3948964477l,   +0.00396,   -0.00286,   -0.00175,   -0.01758,   +0.05371,   +1.01562,  -14.84649,  -29.33086,  +34.92188,   +0.00000,   +0.00000;
3948967040l,   +0.00289,   -0.00074,   +0.00144,   -0.02051,   +0.05957,   +1.01855,  -14.84649,  -29.33086,  +34.92188,   +0.00000,   +0.00000;
3948969574l,   -0.00030,   +0.00033,   -0.00175,   -0.02100,   +0.05322,   +1.01562,  -14.84649,  -29.33086,  +34.92188,   +0.00000,   +0.00000;
3948972136l,   -0.00243,   +0.00246,   +0.00251,   -0.02295,   +0.05176,   +1.01709,  -14.84649,  -29.33086,  +34.92188,   +0.00000,   +0.00000;
3948974696l,   -0.00136,   -0.00499,   +0.00038,   -0.02441,   +0.05566,   +1.01855,  -14.84649,  -29.33086,  +34.92188,   +0.00000,   +0.00000;
3948977263l,   -0.00030,   +0.00033,   -0.00175,   -0.03125,   +0.05713,   +1.01465,  -14.84649,  -29.33086,  +34.92188,   +0.00000,   +0.00000;
3948979833l,   -0.00136,   -0.00074,   +0.00144,   -0.02197,   +0.06104,   +1.02490,  -14.84649,  -29.33086,  +34.92188,   +0.00000,   +0.00000;
3948982402l,   +0.00289,   -0.00393,   -0.00069,   -0.01660,   +0.05273,   +1.01709,  -14.84649,  -29.33086,  +34.92188,   +0.00000,   +0.00000;
3948984941l,   -0.00349,   -0.00393,   -0.00069,   -0.02979,   +0.05176,   +1.03125,  -14.84649,  -29.33086,  +34.92188,   +0.00000,   +0.00000;
3948987507l,   -0.00030,   +0.00458,   +0.00038,   -0.02832,   +0.05078,   +1.02588,  -14.84649,  -29.33086,  +34.92188,   +0.00000,   +0.00000;
3948990079l,   -0.00349,   -0.00074,   -0.00494,   -0.02246,   +0.05518,   +1.01660,  -14.84649,  -29.33086,  +34.92188,   +0.00000,   +0.00000;
3948992628l,   +0.00077,   +0.00246,   +0.00144,   -0.02295,   +0.05713,   +1.03320,  -14.84649,  -29.33086,  +34.92188,   +0.00000,   +0.00000;
3948995189l,   +0.00077,   -0.00180,   +0.00357,   -0.02588,   +0.05859,   +1.00391,  -14.84649,  -29.33086,  +34.92188,   +0.00000,   +0.00000;
3948997749l,   +0.00183,   +0.00458,   +0.00251,   -0.02441,   +0.05371,   +1.01709,  -14.84649,  -29.33086,  +34.92188,   +0.00000,   +0.00000;
3949000310l,   -0.00243,   -0.00286,   +0.00463,   -0.03809,   +0.04639,   +1.02441,  -14.84649,  -29.33086,  +34.92188,   +0.00000,   +0.00000;
3949002871l,   +0.00396,   +0.00458,   +0.00038,   -0.02881,   +0.05566,   +1.02197,  -14.84649,  -29.33086,  +34.92188,   +0.00000,   +0.00000;
3949005431l,   -0.00243,   -0.00286,   +0.00038,   -0.01855,   +0.05615,   +1.02393,  -14.84649,  -29.33086,  +34.92188,   +0.00000,   +0.00000;
3949007992l,   +0.00396,   +0.00033,   -0.00282,   -0.02930,   +0.05127,   +1.02197,  -14.84649,  -29.33086,  +34.92188,   +0.00000,   +0.00000;
3949010553l,   +0.00077,   +0.00565,   +0.00357,   -0.01123,   +0.05859,   +1.03076,  -14.84649,  -29.33086,  +34.92188,   +0.00000,   +0.00000;
3949013120l,   +0.00077,   -0.00286,   -0.00175,   -0.01807,   +0.05859,   +1.01855,  -14.84649,  -29.33086,  +34.92188,   +0.00000,   +0.00000;
3949015682l,   -0.00136,   -0.00074,   -0.00282,   -0.02148,   +0.05078,   +1.01855,  -14.84649,  -29.33086,  +34.92188,   +0.00000,   +0.00000;
3949018239l,   +0.00183,   +0.00033,   +0.00144,   -0.02734,   +0.05615,   +1.01025,  -14.84649,  -29.33086,  +34.92188,   +0.00000,   +0.00000;
3949020801l,   -0.00030,   +0.00458,   +0.00038,   -0.02344,   +0.05762,   +1.02393,  -14.84649,  -29.33086,  +34.92188,   +0.00000,   +0.00000;
3949023361l,   -0.00455,   -0.00074,   +0.00144,   -0.02344,   +0.06299,   +1.03369,  -14.84649,  -29.33086,  +34.92188,   +0.00000,   +0.00000;
3949025922l,   +0.00183,   -0.00180,   +0.00038,   -0.02686,   +0.05957,   +1.01514,  -14.84649,  -29.33086,  +34.92188,   +0.00000,   +0.00000;
3949028482l,   -0.00455,   +0.00352,   -0.00069,   -0.02832,   +0.05518,   +1.02100,  -14.84649,  -29.33086,  +34.92188,   +0.00000,   +0.00000;
